,item,item_index,count,responses,rt,age,trial_type,rating
16273,African aftermath,16273,9,[-2 -2  3  1  2  0  1  1  2],2538.5555555555557,29.0,crit,0.6666666666666666
14988,African bill,14988,7,[ 2  3 -1 -3 -2 -3  2],5472.285714285715,34.857142857142854,crit,-0.2857142857142857
4192,African can,4192,10,[ 2 -3 -1  3  1  1 -2  2  0  3],3837.1,30.3,crit,0.6
17362,African catalog,17362,8,[ 3  3 -1 -1  3 -3 -1 -3],3491.375,32.375,crit,0.0
4587,African chance,4587,13,[-2 -3  3 -1 -2 -3 -3 -1 -2 -3 -2  1  0],4000.0,33.61538461538461,crit,-1.3846153846153846
13062,African grief,13062,7,[ 2  2  3  1 -3  0  2],6311.142857142857,31.142857142857142,crit,1.0
9820,African handset,9820,10,[ 1 -1  0  3 -3 -1 -3  3 -3 -3],3154.4,36.9,crit,-0.7
2021,African inception,2021,10,[-2  2 -3  1 -3  3 -2  1 -3  3],4803.3,41.0,crit,-0.3
1134,African investigation,1134,7,[2 3 1 1 3 1 3],3857.285714285714,37.57142857142857,crit,2.0
11633,African luxury,11633,8,[ 2  3 -1  2  3  3  3  2],3817.625,33.375,crit,2.125
19236,African nomination,19236,3,[-3  1  0],3192.0,30.0,crit,-0.6666666666666666
15077,African nose,15077,10,[-1  3 -2  3  3  3  3 -3 -1  3],3760.4,28.2,crit,1.1
9563,African novice,9563,8,[ 0 -3  3 -3  3  1 -2  2],3454.0,32.0,crit,0.125
10800,African outset,10800,11,[-2 -3 -1  2 -2 -3 -3  3 -3 -3  2],8177.727272727273,39.72727272727273,crit,-1.1818181818181819
15786,African pier,15786,3,[2 2 2],10927.666666666666,43.333333333333336,crit,2.0
14580,African pollution,14580,11,[ 3  3  3  1  2  1 -2  2  2  3  1],3395.181818181818,34.0,crit,1.7272727272727273
12014,African preparation,12014,9,[ 1 -3 -1  2  2  1 -3 -3 -3],4816.666666666667,50.77777777777778,crit,-0.7777777777777778
11878,African shortage,11878,10,[-2 -2 -3 -3  3 -1  0 -1 -3 -3],4468.0,35.1,crit,-1.5
1851,African trunk,1851,7,[ 1  3 -2  2  0 -3  0],7474.0,30.857142857142858,crit,0.14285714285714285
18832,American beam,18832,9,[-3 -2  2 -1 -1 -1 -3 -2 -2],5849.111111111111,30.77777777777778,crit,-1.4444444444444444
19693,American bulk,19693,9,[ 1  2 -2 -3 -2 -3  0  0  1],4608.111111111111,29.22222222222222,crit,-0.6666666666666666
9581,American correlation,9581,8,[ 0 -3  1  2  1 -1  0 -3],10302.375,27.25,crit,-0.375
8318,American crater,8318,11,[-3 -3  3  2  0  1  1 -2  1  2 -2],4745.0,34.81818181818182,crit,0.0
7935,American dairy,7935,7,[ 0  3  2  2  3 -1  3],5263.428571428572,28.714285714285715,crit,1.7142857142857142
17538,American hook,17538,7,[ 1 -1 -3  3 -3 -1 -2],2942.1428571428573,25.571428571428573,crit,-0.8571428571428571
12698,American ice,12698,11,[ 2  3  3  0  0  0  1 -2 -1  2 -1],4537.090909090909,32.09090909090909,crit,0.6363636363636364
10279,American incidence,10279,9,[ 3 -3  2  2  2  2  3  2  2],6397.777777777777,37.0,crit,1.6666666666666667
9691,American inflammation,9691,7,[-3 -3 -2 -2 -2 -3 -1],4641.428571428572,41.142857142857146,crit,-2.2857142857142856
18442,American ion,18442,11,[-3 -3 -3 -3 -2 -1 -3 -3 -3 -3 -3],4162.181818181818,30.90909090909091,crit,-2.727272727272727
15070,American oxide,15070,4,[-3 -2  0 -3],3948.0,37.25,crit,-2.0
1146,American protein,1146,13,[ 3  1  3  1 -2 -1  0 -1  2 -3 -3 -3 -3],6569.384615384615,31.23076923076923,crit,-0.46153846153846156
14323,American reef,14323,7,[ 2  1  1 -2  3  2  1],4232.0,30.0,crit,1.1428571428571428
14922,American ref,14922,4,[ 1  3  3 -3],13303.25,33.5,crit,1.0
6926,American sleep,6926,11,[-3  1  1 -2 -2  2  0  0 -3 -2  3],5421.090909090909,28.727272727272727,crit,-0.45454545454545453
17350,American throat,17350,9,[ 3 -3  1 -3  1 -2 -3 -3  0],4226.888888888889,35.333333333333336,crit,-1.0
2627,American tiger,2627,11,[ 2  3  2 -2  0  2  3  3  3  3  3],2711.0,31.545454545454547,crit,2.0
19699,American wording,19699,7,[-1  1  2  3  3  3  0],4902.428571428572,30.0,crit,1.5714285714285714
19472,Arab ace,19472,6,[-3  0  1 -3 -1  0],5138.5,27.166666666666668,crit,-1.0
15178,Arab ascent,15178,4,[ 3  0 -1  1],7408.0,31.0,crit,0.75
19085,Arab banner,19085,11,[ 3  1  3 -3 -3  1 -3  2  3  0  1],3140.5454545454545,32.27272727272727,crit,0.45454545454545453
15179,Arab beauty,15179,19,[ 3  3  2  3 -1  2  3  3  3  3 -3  1  3  2  3  3  3  3  3],4507.631578947368,29.105263157894736,crit,2.210526315789474
1104,Arab beer,1104,11,[2 3 0 3 3 1 3 3 3 1 0],8375.363636363636,30.363636363636363,crit,2.0
5273,Arab century,5273,7,[ 1  0 -3  1 -3  1  0],6446.142857142857,32.857142857142854,crit,-0.42857142857142855
6705,Arab clarification,6705,15,[-1  0  0  0  0  1 -3 -2  3  1 -2  0 -3  0 -1],3871.4,27.8,crit,-0.4666666666666667
12989,Arab compliance,12989,8,[ 2  2 -1 -2  1 -2  3  1],4449.875,27.75,crit,0.5
17999,Arab councillor,17999,11,[-3  2  2  3  0  3  3  1  3  3  2],5891.636363636364,36.72727272727273,crit,1.7272727272727273
7435,Arab cream,7435,8,[-2  0 -3  3  2  0 -3 -1],3188.875,32.75,crit,-0.5
3574,Arab danger,3574,13,[ 3  3  3 -1  1  2 -2 -3 -3 -1  2  1 -3],4299.846153846154,48.69230769230769,crit,0.15384615384615385
15079,Arab deficiency,15079,12,[-2 -3  2 -3  0 -3  2  3  3  2 -2  1],5272.833333333333,36.833333333333336,crit,0.0
12733,Arab dissolution,12733,9,[-2  0  1 -3  0 -3 -3 -1  1],7892.111111111111,32.55555555555556,crit,-1.1111111111111112
11136,Arab gem,11136,12,[ 2  3  3  1 -3  3 -2  1 -3  1  3  1],3738.1666666666665,41.25,crit,0.8333333333333334
8099,Arab hierarchy,8099,6,[1 2 2 3 3 3],3635.1666666666665,30.166666666666668,crit,2.3333333333333335
11235,Arab induction,11235,6,[-3  1  2 -3 -3 -1],3045.8333333333335,41.166666666666664,crit,-1.1666666666666667
6896,Arab jazz,6896,11,[ 1  1  1 -2  0  2 -2 -3  3  3 -1],3498.2727272727275,31.454545454545453,crit,0.2727272727272727
6188,Arab leisure,6188,6,[-2 -3 -3 -1 -2 -2],4872.166666666667,39.0,crit,-2.1666666666666665
9424,Arab lifetime,9424,12,[ 3 -2  0  0  3  2  3  3  3 -3  3  2],3265.0,33.583333333333336,crit,1.4166666666666667
8575,Arab monitoring,8575,11,[ 0 -2 -3  0  1  0  3 -3 -2 -3 -1],5654.818181818182,29.727272727272727,crit,-0.9090909090909091
18772,Arab motorway,18772,6,[-2  1  1  3  2  1],5735.666666666667,28.0,crit,1.0
19514,Arab planner,19514,8,[ 0 -1  2 -2 -3  2 -1  3],3077.0,38.375,crit,0.0
17586,Arab procession,17586,10,[ 0  1 -1 -3 -3  1  2  3  3  3],5139.1,32.5,crit,0.6
8760,Arab reunion,8760,10,[ 1  1  1  1  3  2  3  2  3 -3],3562.5,37.5,crit,1.4
7905,Arab row,7905,11,[-3 -3 -3 -1 -3  1 -3 -3 -2  1 -3],4948.545454545455,34.54545454545455,crit,-2.0
7827,Arab sanctuary,7827,9,[-3  2  2  0  3 -3  3  0  1],3265.5555555555557,38.77777777777778,crit,0.5555555555555556
2103,Arab sink,2103,12,[-3 -1 -3  1  1  3  2 -1 -1  2 -3  1],4895.083333333333,32.083333333333336,crit,-0.16666666666666666
15873,Arab spreadsheet,15873,10,[-3 -2  0 -3  3  0 -2 -3  2 -1],3784.6,38.9,crit,-0.9
15634,Arab theology,15634,11,[ 2  3 -3  3  2  2  3 -3  3  3  2],4051.7272727272725,38.72727272727273,crit,1.5454545454545454
10887,Arab thread,10887,6,[ 3  0 -3  2 -3 -3],2802.6666666666665,38.0,crit,-0.6666666666666666
880,Arab towel,880,11,[-3  0  0  3  1  3  1  3  3  2  1],4431.0,30.181818181818183,crit,1.2727272727272727
11150,Arab vampire,11150,14,[-3  2  3  1  1  2  2  2  0  2  1  2 -3 -3],4359.571428571428,40.07142857142857,crit,0.6428571428571429
7345,Arab variable,7345,11,[-2 -3 -2 -1 -3 -1  1 -2 -2  1 -2],5183.181818181818,29.181818181818183,crit,-1.4545454545454546
13040,Arab variation,13040,10,[ 1  3  2 -2  2  0 -3  0 -1 -3],4150.0,32.6,crit,-0.1
15574,Arab vocalist,15574,9,[-3  3  3  3  2  2  3 -3  2],2831.4444444444443,33.333333333333336,crit,1.3333333333333333
15063,Arab voltage,15063,9,[-3 -1 -2 -1 -3 -3 -3 -2 -3],3894.5555555555557,41.22222222222222,crit,-2.3333333333333335
12763,Asian assistance,12763,12,[ 3  1  3  0  2  1  1  1  2 -2  3  0],4270.166666666667,38.416666666666664,crit,1.25
19748,Asian batch,19748,6,[ 3  2  1 -3 -1  3],8388.333333333334,41.333333333333336,crit,0.8333333333333334
3802,Asian bowel,3802,7,[ 3 -3  0 -2 -2  1 -2],3391.8571428571427,26.857142857142858,crit,-0.7142857142857143
10635,Asian chip,10635,8,[-2  1  3 -3  2  3  3  0],7097.375,38.75,crit,0.875
16024,Asian cloth,16024,8,[-1  2 -1  3 -3  3  3  3],6145.625,32.0,crit,1.125
1384,Asian consequence,1384,12,[-3 -3 -3 -3  1 -3 -1 -3 -3  1 -3 -3],5068.833333333333,35.75,crit,-2.1666666666666665
16157,Asian cottage,16157,9,[-3  2  2  2  2  3  3  1  0],3551.4444444444443,35.22222222222222,crit,1.3333333333333333
4832,Asian dentist,4832,10,[3 3 2 3 1 3 1 3 2 3],4545.3,39.5,crit,2.4
3868,Asian dissertation,3868,9,[-1  0 -2 -2  3  3  0 -3 -3],7155.333333333333,31.22222222222222,crit,-0.5555555555555556
13824,Asian ease,13824,7,[-3 -3 -3  0 -3 -3 -3],4877.285714285715,33.0,crit,-2.5714285714285716
11620,Asian editorial,11620,11,[ 3 -1  1 -3  2 -1 -1  0  2  2  1],13449.454545454546,32.4,crit,0.45454545454545453
5966,Asian founding,5966,8,[ 1  3 -3  2 -3 -1  2 -2],4556.375,33.0,crit,-0.125
17067,Asian fraction,17067,7,[ 2 -1  0 -2 -3  3  0],3541.8571428571427,33.42857142857143,crit,-0.14285714285714285
15237,Asian illusion,15237,9,[-3 -3 -2  2  2  1  0  2 -3],3657.777777777778,29.77777777777778,crit,-0.4444444444444444
5505,Asian income,5505,8,[ 3 -3 -3  3 -3  0  3  1],3670.625,32.75,crit,0.125
3884,Asian lifetime,3884,13,[ 3  0 -1  0 -3  1  3  0 -3 -3  2  2 -3],2548.769230769231,25.923076923076923,crit,-0.15384615384615385
17822,Asian liquid,17822,6,[ 3 -1 -3 -2 -2 -2],5496.5,44.0,crit,-1.1666666666666667
1604,Asian manga,1604,16,[3 1 2 3 3 2 3 3 3 3 3 3 3 3 3 3],3439.0625,27.875,crit,2.75
9487,Asian militia,9487,11,[ 2  3  3  3  3 -2  3  3  3 -2  3],3217.3636363636365,34.81818181818182,crit,2.0
5112,Asian north,5112,11,[ 0 -3  3 -3 -3  0  0 -1  3  2  0],5600.090909090909,32.0,crit,-0.18181818181818182
7406,Asian obstacle,7406,8,[-1 -2 -2  3  2  0 -3 -3],5303.625,33.125,crit,-0.75
5054,Asian oven,5054,8,[-3  2  3 -3  3 -3  2  1],3561.5,27.0,crit,0.25
19307,Asian relaxation,19307,6,[ 0 -3  2  2  1  0],3142.6666666666665,28.5,crit,0.3333333333333333
10526,Asian sleeve,10526,14,[-3 -3 -1 -2  3 -3 -2 -3 -1  1  0 -3 -3  2],4750.857142857143,36.714285714285715,crit,-1.2857142857142858
2745,Asian tower,2745,7,[ 2  3 -1  3  3  3  3],3794.714285714286,31.857142857142858,crit,2.2857142857142856
13656,Asian void,13656,10,[-3  0 -1 -3  2 -3  1 -3  1 -3],3305.5,31.1,crit,-1.2
17207,Asian wagon,17207,7,[ 1  2  2 -3 -3  2  0],5214.428571428572,37.142857142857146,crit,0.14285714285714285
9553,Asian worship,9553,9,[-2  0  0  0  3  3 -3  2  3],7976.666666666667,28.88888888888889,crit,0.6666666666666666
17057,Australian Viking,17057,12,[-3  2  1 -3 -3  3 -3 -2 -3 -3  2 -2],4370.75,39.333333333333336,crit,-1.1666666666666667
9337,Australian burning,9337,7,[-2 -3  1 -2  0  1 -1],4442.428571428572,29.714285714285715,crit,-0.8571428571428571
5822,Australian continuity,5822,8,[ 0  1  3  3 -3 -2  1  3],4679.75,40.625,crit,0.75
17992,Australian discrimination,17992,6,[ 1  1 -3  3  2  2],3742.5,33.5,crit,1.0
14443,Australian fate,14443,4,[1 1 0 0],4757.5,29.5,crit,0.5
19985,Australian ice,19985,3,[3 2 3],8286.666666666666,31.666666666666668,crit,2.6666666666666665
5199,Australian inheritance,5199,13,[-1 -3  0 -3  3 -3  1 -1  1  1  2 -2  0],5203.153846153846,35.84615384615385,crit,-0.38461538461538464
3248,Australian key,3248,7,[ 2  0  3  3  1 -2 -1],3940.714285714286,25.571428571428573,crit,0.8571428571428571
8807,Australian nail,8807,9,[ 3  0  0  1  0  3 -3 -2  1],5890.444444444444,34.333333333333336,crit,0.3333333333333333
15529,Australian onset,15529,15,[ 0  1 -1 -2 -3 -3 -2 -3 -3 -3 -3 -3 -1 -2  3],6046.4,30.4,crit,-1.6666666666666667
5321,Australian precision,5321,3,[-3  1 -2],3415.0,28.0,crit,-1.3333333333333333
19558,Australian procurement,19558,6,[-2  3  2  3  0  1],5207.166666666667,29.666666666666668,crit,1.1666666666666667
519,Australian protein,519,18,[-1 -2  1 -2 -1  1 -2 -2  1  2 -3  3 -3  1 -1  0 -3  3],3705.8333333333335,32.166666666666664,crit,-0.4444444444444444
19244,Australian repayment,19244,14,[ 3 -2 -3  0 -3 -1  3 -3 -3 -3  1  1 -3  2],5929.571428571428,36.0,crit,-0.7857142857142857
3226,Australian ribbon,3226,12,[ 1  3  1  1 -3  0  0  3  3 -1  3  2],4590.916666666667,27.833333333333332,crit,1.0833333333333333
19590,Australian rubber,19590,6,[ 3 -3  0  3  1  2],2936.3333333333335,40.166666666666664,crit,1.0
1033,Australian sharing,1033,5,[ 2 -2 -2 -3 -1],3273.2,27.2,crit,-1.2
17263,Australian speaking,17263,10,[ 3  3  3  3  2  1 -3 -1 -3  3],3819.1,36.7,crit,1.1
18602,Australian tea,18602,7,[ 3 -2  3  3  3  3  3],3092.4285714285716,30.0,crit,2.2857142857142856
15702,Australian thumb,15702,9,[-3  1  1  2 -1 -3 -3 -2 -3],3654.777777777778,28.444444444444443,crit,-1.2222222222222223
19675,Australian towel,19675,4,[1 0 3 3],3521.25,27.0,crit,1.75
14419,Australian vacuum,14419,9,[ 2  3  2  1 -3 -3 -2 -2  3],4119.666666666667,37.0,crit,0.1111111111111111
3507,Australian waterfall,3507,8,[ 3  2  3 -3  3  3  1  3],3261.125,27.375,crit,1.875
14366,Australian wind,14366,6,[3 2 2 3 2 3],3035.5,44.5,crit,2.5
1479,British DIY,1479,6,[-1  3  3  1  1 -1],3507.1666666666665,37.833333333333336,crit,1.0
12816,British coursework,12816,8,[ 3  2  3 -1  2  3  2  3],11036.875,28.25,crit,2.125
12399,British dust,12399,10,[-3 -2  3  2  1  3  3 -2  2  1],3072.7,34.7,crit,0.8
18416,British extinction,18416,9,[ 0  2 -1  3  3  2 -2 -3  2],3721.8888888888887,29.11111111111111,crit,0.6666666666666666
11442,British harvest,11442,6,[3 2 3 3 0 3],3423.5,34.333333333333336,crit,2.3333333333333335
17691,British heading,17691,6,[ 3 -2  0  1  1  0],2850.1666666666665,39.833333333333336,crit,0.5
11564,British passing,11564,4,[ 3 -3  0 -3],4086.25,30.0,crit,-0.75
1447,British premium,1447,12,[ 1 -3  1 -3 -2 -2 -2  0  0 -2 -1  3],3888.0833333333335,30.75,crit,-0.8333333333333334
393,British url,393,9,[ 2  2 -3 -3  3 -3  3  3 -3],5825.0,37.22222222222222,crit,0.1111111111111111
784,British wrist,784,13,[-2 -2  1 -2 -3 -1 -1  1  1 -1 -2 -1 -3],4175.0,35.84615384615385,crit,-1.1538461538461537
19061,Canadian acronym,19061,8,[ 2  3  3 -3  3 -2  1  2],6337.875,26.25,crit,1.125
9483,Canadian appliance,9483,15,[ 0  3  1  3  2  3  3  3  3  3  3  3 -3  2  3],5905.466666666666,37.13333333333333,crit,2.1333333333333333
589,Canadian cluster,589,12,[ 2  1  3  1  1  3  3  0  1 -2 -2 -2],3871.9166666666665,31.666666666666668,crit,0.75
8342,Canadian creativity,8342,11,[ 1  1  3  1  1  0  3 -2  3  0  3],3558.3636363636365,30.272727272727273,crit,1.2727272727272727
8968,Canadian deficiency,8968,13,[ 2  2 -1 -3 -3  0  1 -2  0  3 -2 -3  2],4345.076923076923,31.0,crit,-0.3076923076923077
10908,Canadian dismissal,10908,11,[-3 -2  1  1 -2  1 -3  1  3  0 -3],4881.727272727273,35.90909090909091,crit,-0.5454545454545454
13837,Canadian dock,13837,11,[ 3  3  3  0  1  2  3  1  2  1 -1],7291.272727272727,28.636363636363637,crit,1.6363636363636365
17452,Canadian feast,17452,10,[ 2  3  2  3 -3  3  2  2  3  3],4654.5,36.2,crit,2.0
12696,Canadian lion,12696,9,[ 3  3  3 -2  2 -3  3 -3  2],4655.0,28.0,crit,0.8888888888888888
11289,Canadian node,11289,9,[ 0 -2  0 -1 -2  3  0  0  1],6664.444444444444,32.666666666666664,crit,-0.1111111111111111
10505,Canadian notebook,10505,9,[3 1 1 3 1 3 1 0 2],3808.6666666666665,30.666666666666668,crit,1.6666666666666667
1510,Canadian nutrient,1510,11,[ 1  2  0 -2  2  0 -1 -2 -2 -1  3],7377.818181818182,31.454545454545453,crit,0.0
16960,Canadian passing,16960,9,[-2 -1 -3  3 -1  0  2  3  2],7063.111111111111,34.55555555555556,crit,0.3333333333333333
16235,Canadian reconciliation,16235,8,[ 2  1  1  1 -3  1  1 -3],5919.5,31.375,crit,0.125
11372,Canadian remedy,11372,6,[-2  3  3 -3  0  0],3158.1666666666665,31.333333333333332,crit,0.16666666666666666
6938,Canadian rod,6938,9,[-2 -3  2  0 -2  3  0  2  1],4966.444444444444,31.444444444444443,crit,0.1111111111111111
16920,Canadian screw,16920,6,[ 1  3 -1  3 -1 -2],5113.5,29.0,crit,0.5
14718,Canadian sufferer,14718,7,[-2  1 -2  2  3 -3 -3],3848.8571428571427,36.0,crit,-0.5714285714285714
10927,Canadian summary,10927,14,[-3 -3 -2  1 -2  2 -2  0  1  2 -2  3 -2  3],3213.0714285714284,35.857142857142854,crit,-0.2857142857142857
18850,Canadian taxi,18850,12,[ 2  3  3  3  2  3  3  3  3  1 -3  3],3254.0833333333335,34.666666666666664,crit,2.1666666666666665
18961,Canadian text-decoration,18961,5,[-2  0 -2 -3  1],4445.6,30.8,crit,-1.2
6973,Canadian tobacco,6973,12,[3 0 3 3 3 2 3 3 3 3 3 3],3941.3333333333335,29.333333333333332,crit,2.6666666666666665
4961,Canadian trouble,4961,9,[-3  3 -1  1  3  3  0 -3 -3],4115.777777777777,36.0,crit,0.0
6481,Canadian turn,6481,13,[-3  0 -3 -3 -2 -1 -3  1 -2 -1 -2 -2 -3],4544.923076923077,30.923076923076923,crit,-1.8461538461538463
4111,Canadian warrant,4111,12,[-2  3  1  0  2  0  2  1  2 -2  3  3],6395.833333333333,29.75,crit,1.0833333333333333
9131,Canadian whale,9131,10,[-2  1  3  3  3  3  3  3  2 -2],13277.6,35.9,crit,1.7
5319,Canadian worship,5319,10,[-3  3  2  2  1  2 -3 -3  3  2],4144.9,27.3,crit,0.6
11330,Catholic angel,11330,9,[ 0  3  2  0  2  3  1  3 -2],8549.111111111111,30.22222222222222,crit,1.3333333333333333
12622,Catholic anyone,12622,11,[-1 -3  2 -1 -3  1  3 -3  0 -3  2],4189.636363636364,30.09090909090909,crit,-0.5454545454545454
4296,Catholic arm,4296,7,[-3 -2 -3  1 -3 -2  0],3537.285714285714,35.857142857142854,crit,-1.7142857142857142
3606,Catholic bean,3606,10,[-3 -3  2 -3  0 -1 -1 -3 -3 -3],4067.1,38.9,crit,-1.8
16398,Catholic blow,16398,6,[-3 -3 -3 -1 -2  2],5725.5,35.833333333333336,crit,-1.6666666666666667
2438,Catholic brigade,2438,11,[ 0 -3  2  3  1  2 -2  0  3 -1 -3],5807.636363636364,32.4,crit,0.18181818181818182
2965,Catholic classic,2965,9,[ 2  0  2 -1  3 -1 -3 -2 -3],3961.8888888888887,32.22222222222222,crit,-0.3333333333333333
275,Catholic dancing,275,9,[ 3 -1 -1  2 -2 -3 -3  2 -2],3592.6666666666665,30.11111111111111,crit,-0.5555555555555556
6444,Catholic emails,6444,9,[ 2  3 -1 -3  0 -1  3 -3 -2],3759.3333333333335,39.333333333333336,crit,-0.2222222222222222
2729,Catholic emotion,2729,16,[-2  2  1  1 -2 -3  3 -3  3  2 -1  0 -1  1  1 -3],2949.3125,27.0,crit,-0.0625
10546,Catholic excellence,10546,7,[-2  2 -2  3  3  3 -3],3795.1428571428573,29.0,crit,0.5714285714285714
10827,Catholic exploration,10827,10,[ 3 -2 -3 -3  2  2  3  1  1 -3],3609.4,40.1,crit,0.1
18795,Catholic finale,18795,6,[-3 -3  2  0 -3 -1],4453.0,38.333333333333336,crit,-1.3333333333333333
13218,Catholic fridge,13218,5,[-3 -3 -2 -3 -3],2899.4,30.6,crit,-2.8
8852,Catholic gun,8852,7,[-3 -3 -3  1 -3 -1 -3],4579.714285714285,31.285714285714285,crit,-2.142857142857143
1527,Catholic illustration,1527,10,[-3  0  2  2  2  3  3  3  2  3],2879.0,31.8,crit,1.7
3569,Catholic injustice,3569,4,[3 0 2 2],3899.0,28.75,crit,1.75
4539,Catholic knife,4539,6,[-3 -3 -2 -1 -3 -1],3221.8333333333335,27.5,crit,-2.1666666666666665
19768,Catholic leg,19768,6,[-3 -3 -1 -3 -1 -2],3121.8333333333335,30.666666666666668,crit,-2.1666666666666665
9137,Catholic liver,9137,7,[-3  0 -3 -3  3 -3  3],3305.285714285714,38.285714285714285,crit,-0.8571428571428571
17742,Catholic making,17742,12,[ 1 -2 -3 -3 -2 -1  1 -3  0 -3 -3  0],4612.666666666667,33.083333333333336,crit,-1.5
18632,Catholic misuse,18632,5,[-3  1  1 -1  0],5254.6,33.2,crit,-0.4
8358,Catholic repair,8358,13,[ 0 -3 -1 -1 -3 -3 -1  1 -3 -2 -2 -3 -1],5295.7692307692305,34.0,crit,-1.6923076923076923
7356,Catholic revenue,7356,11,[ 0  0  1 -3  2  2  3  1  3  0 -2],6329.181818181818,38.18181818181818,crit,0.6363636363636364
18758,Catholic routine,18758,6,[3 2 0 3 3 2],4004.1666666666665,35.666666666666664,crit,2.1666666666666665
4789,Catholic runner,4789,8,[ 1 -2 -2  0  3  2 -1 -1],4644.125,36.25,crit,0.0
5269,Catholic skill,5269,15,[ 2  0 -3 -3 -1 -2  1 -2  1 -3  2  0 -2  0  0],4048.866666666667,34.2,crit,-0.6666666666666666
1092,Catholic tape,1092,7,[-2 -2  0 -3  0 -1  1],3147.1428571428573,32.857142857142854,crit,-1.0
5817,Catholic toilet,5817,18,[-1 -3  0  3 -3 -3 -3 -2  1 -3  0 -1  2 -1 -1 -3 -2  2],4662.833333333333,30.27777777777778,crit,-1.0
12641,Catholic trout,12641,12,[-3 -3 -3 -1 -1 -2 -2 -3 -3 -3 -3 -3],5319.666666666667,29.25,crit,-2.5
4334,Catholic truck,4334,12,[-3 -3 -1 -3 -1  0 -3  2 -1 -2 -3 -3],6782.333333333333,26.5,crit,-1.75
8574,Catholic well-being,8574,8,[ 0  1 -3  2 -2 -2  2  3],3457.625,29.625,crit,0.125
4624,Chinese absorption,4624,12,[-2  3  0  2 -3  2 -3 -2 -3 -2 -2 -1],6097.333333333333,32.5,crit,-0.9166666666666666
11614,Chinese accessibility,11614,8,[ 1  3  3  1  3 -3 -3 -1],5079.75,33.0,crit,0.5
17347,Chinese alteration,17347,5,[-3 -2 -1  2  1],9094.0,30.0,crit,-0.6
14,Chinese broadband,14,8,[-3  3  2 -3  3  1  3  3],4761.875,39.625,crit,1.125
2609,Chinese darkness,2609,9,[-1 -1  1 -3 -3 -2  0  1 -3],4301.111111111111,43.111111111111114,crit,-1.2222222222222223
5829,Chinese dissertation,5829,12,[ 3 -2  1  0 -2  0 -3  2  3  0 -1  3],5039.5,32.25,crit,0.3333333333333333
19976,Chinese eligibility,19976,2,[1 3],3502.0,35.5,crit,2.0
263,Chinese emergence,263,9,[ 3  3  2  0 -3  2  2  2  2],4806.777777777777,34.111111111111114,crit,1.4444444444444444
17231,Chinese herd,17231,9,[-3 -3 -3 -3  1  2 -3  3  3],4494.333333333333,36.111111111111114,crit,-0.6666666666666666
8578,Chinese maximum,8578,9,[-1 -3  0 -1 -3  3 -1 -3 -3],8589.666666666666,36.44444444444444,crit,-1.3333333333333333
19979,Chinese outreach,19979,9,[-3 -1 -3  1 -1  3  1 -1 -3],5467.666666666667,30.666666666666668,crit,-0.7777777777777778
2201,Chinese plasma,2201,10,[-1 -1  1 -1  3 -2  1 -3 -3  3],3709.0,31.5,crit,-0.3
17442,Chinese restoration,17442,10,[ 2  1  3  3  3  2  2  2 -3  2],7688.0,26.2,crit,1.7
2580,Chinese separation,2580,12,[-2 -3 -3 -3  0  1  1  2  3  2 -3 -2],3376.8333333333335,37.5,crit,-0.5833333333333334
12608,Chinese subsection,12608,9,[ 2 -3 -2 -3  3 -3  1  1  2],3767.3333333333335,31.88888888888889,crit,-0.2222222222222222
18191,Chinese vowel,18191,10,[3 3 3 3 3 2 3 2 3 2],3269.0,27.4,crit,2.7
13523,Christian airline,13523,8,[ 1 -1  3  2  1 -1  1  0],3476.875,32.0,crit,0.75
13538,Christian arc,13538,14,[ 2  0 -1 -2  0 -1 -3 -3 -3  2 -3 -1 -1  2],9431.07142857143,32.42857142857143,crit,-0.8571428571428571
8523,Christian arcade,8523,7,[ 2 -3  3  0  1 -3  0],3877.1428571428573,34.142857142857146,crit,0.0
6585,Christian basement,6585,7,[ 1  3 -2 -1 -3 -3  3],12213.857142857143,35.142857142857146,crit,-0.2857142857142857
165,Christian cable,165,14,[-3 -3 -3  2 -3 -3 -3 -2  3 -1  1 -2 -3  3],3406.214285714286,38.07142857142857,crit,-1.2142857142857142
10594,Christian container,10594,9,[-3 -3  0  2  2 -1 -2 -3 -2],5485.888888888889,25.77777777777778,crit,-1.1111111111111112
7444,Christian disability,7444,11,[-3 -1 -2 -3 -1  1 -3 -3 -3 -3 -2],4519.545454545455,28.454545454545453,crit,-2.090909090909091
4502,Christian drug,4502,4,[-3 -2  0 -2],2569.25,40.75,crit,-1.75
13902,Christian expertise,13902,6,[ 2  2  3  3 -3  0],4081.3333333333335,31.166666666666668,crit,1.1666666666666667
7371,Christian fighting,7371,12,[ 1  2  3  3  0  2  2 -2 -3 -2  1 -3],5338.583333333333,30.666666666666668,crit,0.3333333333333333
12184,Christian gravel,12184,9,[-3 -3 -3  0 -3 -1 -1 -3 -3],6083.444444444444,28.666666666666668,crit,-2.2222222222222223
11816,Christian illusion,11816,7,[-2 -1  3 -3  1  0  1],4344.857142857143,35.142857142857146,crit,-0.14285714285714285
13259,Christian keywords,13259,16,[ 1  1  2  1  2  1  3  3 -2  0 -2 -3  0  3  1 -3],4985.9375,30.1875,crit,0.5
9080,Christian limestone,9080,12,[-3 -3  3 -3 -3 -3 -3 -2 -2  3 -1 -3],6200.75,36.54545454545455,crit,-1.6666666666666667
15889,Christian mile,15889,6,[ 2 -2 -3 -3  1 -2],4340.166666666667,24.5,crit,-1.1666666666666667
19738,Christian removal,19738,8,[-3  2  3 -3 -3  3 -3 -3],4427.625,26.0,crit,-0.875
16933,Christian rifle,16933,6,[-3 -2 -3  1 -2 -3],3951.6666666666665,29.166666666666668,crit,-2.0
16611,Christian rivalry,16611,5,[-1  2 -2  1  3],2456.6,30.6,crit,0.6
11547,Christian sand,11547,4,[-3 -3 -1 -2],4356.25,31.0,crit,-2.25
3499,Christian shirt,3499,10,[2 3 3 1 2 0 2 0 3 0],3065.6,28.3,crit,1.6
14773,Christian sibling,14773,10,[ 3  3 -1 -3  3  3  2  3  2  3],3237.4,31.0,crit,1.8
9688,Christian switch,9688,7,[-3 -3 -3  1 -2 -3 -3],4765.714285714285,33.57142857142857,crit,-2.2857142857142856
1188,Christian tier,1188,11,[-3 -2  2  1  2  1 -3  0 -3 -2 -3],3767.090909090909,36.36363636363637,crit,-0.9090909090909091
2749,Christian void,2749,15,[-1  0 -1  2 -1 -1 -3 -2 -3 -2 -3  2  1  2 -2],3701.866666666667,30.8,crit,-0.8
16563,Christian waste,16563,9,[ 0 -3 -1  1  1 -3 -3 -3 -1],19016.555555555555,30.11111111111111,crit,-1.3333333333333333
18701,Christian weed,18701,8,[-3 -3 -3 -2 -1  3  0 -3],5886.0,25.375,crit,-1.5
10599,Conservative ability,10599,5,[ 2  1 -2  3  3],4001.4,50.2,crit,1.4
63,Conservative arc,63,977,"[-3  3  1  3 -1  3  0 -2 -3  3  3 -3 -2  0 -2  1 -2  1 -3  3  3 -3 -2 -3
  1  0 -3  2 -3 -3  0 -3 -1  3  0  2 -2 -2  3 -2  2 -3  0 -2  1 -2  1 -3
  1  1  0 -2  0  1  0  0 -3  0  3 -3  2  3  1  1  1  1 -2 -3 -3  0 -2 -2
 -3  0  1 -3 -1  1 -3 -1 -1  1  3 -3 -1 -3  0  0 -3  1 -1 -3 -2 -1  1 -3
  2 -2  3 -3  3  1  3 -1 -3  1 -3  3  3  2  2 -3 -3 -3 -2  0  2  2 -2 -3
  3  1 -3  1  2 -3  0  0  3 -2  1 -3  2  1  3 -2 -3 -2 -2 -3 -3  3 -2  0
 -2 -1 -3  0 -2  0 -2  1 -1  1 -2 -2 -3  3  2 -3 -3  1 -2 -3  1  2 -2  3
 -2  1 -3 -2  3 -3  0  3  0  2  2  2 -2 -3  1  3  2  1 -3  3 -3 -3  0 -2
  3  0  2  0 -1  2  2 -3  3  1  3 -3 -3  2  3  0  3 -3  3  1 -3  2 -1 -3
  3  0 -2  0 -2 -2 -3  1 -1  0  1  2  2 -1 -3  2  1 -3 -2 -2 -2  3 -2 -2
  2 -1 -3  0 -1 -3 -2  3 -2  1 -3  1  1 -1 -3 -2 -3  0 -1  2 -3 -3 -2  0
  1 -1 -3 -3 -2  2 -2 -2 -3 -3  0  2  1  0  3 -3  0 -3 -1  3  1 -2  3  0
  2  2 -1  3 -1 -1  2  3  3 -2 -3 -3 -3  1  1 -3  1  0  3 -3 -1  2 -1 -1
  1 -3 -3 -3  0 -1  1 -1  3  1 -2  2  1  3 -2 -3  0 -1  0  3  3  2 -3 -1
  1  3 -3 -1  2 -2 -2  3  2 -3 -3  2 -3 -3 -3 -3 -1 -3  3 -3  1  3 -3  3
 -3  1  0 -3 -3  3  3  1  2  3 -1  0  2  0 -3 -2 -2  2  3 -3  3  3  1 -1
 -1 -3  1 -3  2 -1  3  1  3 -1 -2  0 -2 -3  2  0 -2 -3 -1 -2 -2  3 -2  0
 -3  0  1  0  3  0  2 -2 -3 -1 -3 -2  2 -1 -3 -3  1 -1 -1  2 -1 -3 -3  1
  1 -1 -3  3  3  3  1 -1 -3 -2  0 -3  2  1 -3  1 -3 -1  1  2 -3 -2 -1 -3
 -1  3 -3  0  2 -3  1 -3  1  3  0 -3  0 -3 -1 -3 -1  1  3  0  0 -3  0 -1
 -3 -2 -1  2  1 -2  3  3  1 -2  0 -2  1  3  3 -2 -2 -1  1 -2  1  0 -3 -2
 -3  0 -1  0  2  2  1  2 -3  1 -3  0  0 -1  0 -2  2  2 -3  1 -3  1 -1  0
 -3 -3  1  1  2 -2  1  2  1  0 -3 -2 -1 -1  1 -3  2 -1  1 -3 -3 -3  2 -3
  1 -3  2 -2  3 -2 -2  0  0  0  1 -2 -3 -1 -2 -2  0  0 -2 -2  2 -1 -2 -2
  1  0  2  1  1  3 -3  2  1 -3 -3  3  2  3  1  1  1  2 -2  1  2  0  3 -3
  3  3  3  0  3 -2  2  1  0  1  1  2  3 -1  2  0  0  1  3 -2 -3 -3  1 -2
  0  3  1  3 -1  3  3  0 -2 -2 -3  0  3  3 -3  2  3 -3  1  0  3 -2  1 -3
  1  0  3  0  0 -2  0 -2  3 -1  2  1 -3 -3 -3 -2  0  2  1  1 -1  0  0  2
  2 -1  3 -1 -2  1 -2 -1 -3 -3 -2 -2  0 -3  1 -3  1 -3  2  1 -2  1 -2  3
  1 -3 -2 -3 -1 -3  3 -3  2  3 -2  1  1 -1  2 -1 -3  2  0  2  1 -1  1  0
  2 -2  3  0 -3  1  2  2 -2 -3  2  0 -2 -2 -1 -2  0  2 -3 -3  1  0  0  2
 -2  0  3  0 -1 -3  0 -1  3 -3 -2 -3  0 -2  3  2 -1 -3  0 -2  3  1 -1 -3
  3  1  0  2 -3  0 -2 -3 -3 -3  3  2 -3  1  3 -2 -3  1  0 -2  0 -1 -1 -3
  3  1  0  2 -2 -1 -3 -3 -3  2 -2 -2 -2 -3  2  1  3  1 -2 -3 -3 -2 -3 -3
  2 -1  1 -3  2  2  1  2  1 -1  1  0 -3 -1  2 -3  3  2 -1  0  0  1 -2  3
  1  1 -2 -1 -1  2  3 -1 -3 -3 -3  1  3  2 -2 -2  2  1  3  2  2  3 -3  3
  1  0  0  2  1  2  0 -1 -1 -1 -2 -2 -1 -1 -3 -3  1  0  1 -2 -1 -3  2  3
  1 -1  0  1 -2 -2 -3  3  1  1  1  1  2  2  2  1  0  1 -3 -3 -3 -3 -2  1
  1  0  0 -2 -2  3  0 -1 -1  0 -3  0  2 -3 -1  0 -3 -3  2 -1  0  0 -1 -1
  0 -2  1  1  2 -3 -3 -3  0  0  2  2 -1  0  3  1  0  1  1  3 -2 -2 -2  2
 -3  2 -2 -2  0 -3 -3  3  0  1 -2  3 -1 -3 -2  0 -2]",5434.796315250767,33.0,anti,-0.28454452405322417
11169,Conservative beam,11169,6,[-3 -2 -2 -3 -3 -3],3261.3333333333335,28.166666666666668,crit,-2.6666666666666665
14492,Conservative beauty,14492,12,[ 3  1  2  2  3  3  2  2  2  2 -2  3],5751.5,32.916666666666664,crit,1.9166666666666667
16361,Conservative cargo,16361,12,[-2  2 -2 -3 -2 -2  0 -2 -3 -3 -3  2],6531.416666666667,32.583333333333336,crit,-1.5
16903,Conservative cart,16903,8,[-2  3 -3 -1 -3 -1 -3 -3],2988.5,28.0,crit,-1.625
4860,Conservative cat,4860,13,[ 0  1 -2  0 -3 -3 -3 -2 -3 -1 -3 -3 -1],4865.307692307692,42.15384615384615,crit,-1.7692307692307692
6577,Conservative charity,6577,7,[-1  3  2  3  2  0  2],5461.0,29.857142857142858,crit,1.5714285714285714
17209,Conservative computer,17209,8,[ 1 -3 -3 -3  3 -3 -3 -2],3223.875,28.0,crit,-1.625
10171,Conservative concentration,10171,12,[-3  1  1 -1  0  2  1 -3  0 -2  1  3],19668.25,27.416666666666668,crit,0.0
2262,Conservative contamination,2262,8,[-3 -3 -2 -3 -3 -3 -3  0],4238.625,34.25,crit,-2.5
19184,Conservative dependence,19184,12,[-1  0 -3  2 -2  2  2  2 -3  1 -3 -3],4895.5,32.416666666666664,crit,-0.5
12488,Conservative equation,12488,8,[ 1  2  0 -2 -2  2 -3 -2],5119.5,30.0,crit,-0.5
732,Conservative fax,732,11,[-2  2 -1 -3 -1  0 -2 -3  2 -1 -1],5186.363636363636,28.454545454545453,crit,-0.9090909090909091
5488,Conservative foreigner,5488,9,[ 2  3 -3  2  3  3  3  2  1],4833.222222222223,31.666666666666668,crit,1.7777777777777777
14213,Conservative knight,14213,12,[ 3  2  3  3 -3  0  1  0  1  0  2 -1],3695.75,35.833333333333336,crit,0.9166666666666666
18582,Conservative medal,18582,7,[-1  3  3 -2  1  1  2],5296.571428571428,35.714285714285715,crit,1.0
4483,Conservative microscope,4483,12,[-1 -3 -3 -3 -2  0 -2 -3 -3 -3 -1 -3],3271.25,33.5,crit,-2.25
12579,Conservative organism,12579,10,[-3 -2  1 -3 -2  2 -2  1  3 -3],4410.5,34.8,crit,-0.8
14618,Conservative outbreak,14618,12,[ 1  2 -1  1  3 -3 -3  3  2 -3 -3  0],5659.333333333333,32.166666666666664,crit,-0.08333333333333333
3787,Conservative outline,3787,14,[ 3 -1  3 -1 -2  0 -3  3 -2  2  3  3  3 -2],4618.5,36.42857142857143,crit,0.6428571428571429
18357,Conservative paperback,18357,6,[-3 -3 -3 -3 -3  2],9107.0,25.833333333333332,crit,-2.1666666666666665
15515,Conservative parasite,15515,10,[-3  0  1  3 -3 -1  1 -2  3  2],5394.5,33.5,crit,0.1
19804,Conservative permit,19804,10,[-3 -3  2 -2 -3 -1 -2 -3 -2 -3],2911.5,32.0,crit,-2.0
14394,Conservative prison,14394,6,[ 1  1 -1  1  2 -1],4869.5,39.333333333333336,crit,0.5
17776,Conservative procurement,17776,7,[ 0 -3 -2  2 -3  0  2],5265.571428571428,34.42857142857143,crit,-0.5714285714285714
15845,Conservative quarry,15845,7,[ 1 -3  1 -2  0 -3 -3],5645.857142857143,29.285714285714285,crit,-1.2857142857142858
18511,Conservative quotation,18511,8,[ 2  2  1  2 -2  3  3  3],7423.625,39.5,crit,1.75
19876,Conservative robot,19876,3,[-3  3 -3],3524.3333333333335,52.0,crit,-1.0
11488,Conservative sailing,11488,10,[-3  0 -1  1 -1 -1 -3  3  0 -3],7064.8,36.4,crit,-0.8
3962,Conservative sponsorship,3962,13,[ 3 -2  1  2  3 -2  2  3  2  1  2  3  1],4320.692307692308,32.92307692307692,crit,1.4615384615384615
4720,Conservative strip,4720,11,[-1 -3  0 -3 -2 -3  3 -2 -1 -3 -1],5724.090909090909,31.454545454545453,crit,-1.4545454545454546
18962,Conservative summary,18962,8,[ 1  2  2  3 -2  3  1  2],4783.625,37.625,crit,1.5
6300,Conservative sustainability,6300,11,[ 0  0  3  1  0 -1  1  2  3  0  1],8962.363636363636,38.90909090909091,crit,0.9090909090909091
2621,Conservative syndrome,2621,13,[-2  2 -2 -3 -3 -3 -2 -3  1  3 -2  3 -1],3675.153846153846,29.923076923076923,crit,-0.9230769230769231
18318,Conservative uprising,18318,7,[0 2 3 3 3 3 1],4283.285714285715,28.285714285714285,crit,2.142857142857143
434,Conservative veteran,434,12,[ 2  2  2  3 -3  1  3  3  0  3  3  1],7132.083333333333,29.666666666666668,crit,1.6666666666666667
4857,Conservative wealth,4857,16,[ 0  0  2  3  1  0  2  3  1  3  0 -2  1  0  3  2],5115.0,37.25,crit,1.1875
6428,Conservative well,6428,8,[-3  0 -3 -3  0 -2 -2 -3],6871.125,36.0,crit,-2.0
7250,Danish acid,7250,11,[ 1  3 -1 -2 -1 -3 -1 -3 -2 -3 -2],4167.818181818182,31.90909090909091,crit,-1.2727272727272727
7265,Danish ankle,7265,15,[-1  2 -3 -2  0 -3 -3 -2 -2 -2 -3 -2 -3 -2  0],4108.266666666666,35.266666666666666,crit,-1.7333333333333334
17627,Danish attraction,17627,9,[0 3 3 3 1 2 3 3 3],3326.777777777778,40.22222222222222,crit,2.3333333333333335
19481,Danish boiler,19481,8,[-1  2 -1  0  3  1  3  2],2860.75,27.125,crit,1.125
19467,Danish bow,19467,9,[ 3  3 -3  1 -3  3  1  3 -2],6944.555555555556,41.666666666666664,crit,0.6666666666666666
15548,Danish calculator,15548,14,[-3  2  3 -2 -3  1 -3  0 -3  1  3  2  2  2],4586.642857142857,30.142857142857142,crit,0.14285714285714285
6370,Danish chord,6370,15,[-1  0 -3  3 -2 -2  1  1  2 -3  2 -3 -3 -2 -1],5037.0,37.8,crit,-0.7333333333333333
19615,Danish climb,19615,3,[-3 -3 -3],3120.0,34.0,crit,-3.0
11066,Danish controller,11066,14,[-2  0  1  3 -1  0  1  2  3  3 -1  0  0 -3],3492.3571428571427,39.142857142857146,crit,0.42857142857142855
5289,Danish costume,5289,10,[3 3 3 3 3 3 2 2 3 3],3123.4,38.7,crit,2.8
15125,Danish dealing,15125,15,[ 1 -3  2 -3 -2  2 -2  3 -2 -3  1 -3  1  1 -3],4533.466666666666,31.933333333333334,crit,-0.6666666666666666
1359,Danish dignity,1359,16,[-2  0  3 -2  1  1 -3  1  0  3  1  0  3  3  1 -2],3988.875,32.25,crit,0.5
16467,Danish epilepsy,16467,5,[-3 -3 -3  0 -1],3350.8,29.0,crit,-2.0
18245,Danish filing,18245,2,[-2  3],2895.0,42.5,crit,0.5
10835,Danish fin,10835,10,[ 3 -2  0  0 -3  3 -3 -3  3  2],4710.3,36.0,crit,0.0
14528,Danish heading,14528,8,[-1 -3 -3  3 -2  1 -3 -2],3521.5,28.0,crit,-1.25
14147,Danish highlight,14147,7,[-3 -1  2  3 -2  0 -2],3869.8571428571427,41.142857142857146,crit,-0.42857142857142855
5905,Danish implementation,5905,8,[3 1 1 0 1 3 2 1],6705.25,30.625,crit,1.5
12652,Danish insulin,12652,3,[ 3 -3  3],4131.333333333333,30.666666666666668,crit,1.0
6192,Danish jacket,6192,19,[ 1 -2  0  1  3  2 -1  3  2  0  3 -1  3  1  0  3  3 -2  3],3892.5789473684213,32.94736842105263,crit,1.1578947368421053
4479,Danish journey,4479,8,[ 2  1  2  3 -3 -1  1  1],2870.25,28.0,crit,0.75
4072,Danish monster,4072,15,[ 0  3  1  2  2 -3 -3  3  2 -2  3 -3 -2 -1  1],3995.0,30.533333333333335,crit,0.2
1764,Danish morality,1764,10,[ 3  0  3  1  3  3  3  3 -1  2],8573.1,35.8,crit,2.0
19948,Danish picnic,19948,5,[3 0 2 1 3],3510.8,39.6,crit,1.8
3181,Danish playoff,3181,8,[ 2 -3  0  1 -2 -1  0  0],4003.125,27.0,crit,-0.375
1126,Danish positioning,1126,10,[-3  0 -3 -2 -1  3  1  0  2  1],6586.7,37.4,crit,-0.2
3303,Danish projection,3303,9,[-1  0 -2  0 -1 -3  2  2  2],10287.111111111111,37.55555555555556,crit,-0.1111111111111111
5113,Danish rain,5113,15,[-3  3  1  2  2 -3  1 -2 -3 -2  1  0 -1  3  1],6067.666666666667,29.4,crit,0.0
2794,Danish ride,2794,10,[-3  1 -3 -2  3 -2 -1  2  2  2],4217.1,34.1,crit,-0.1
5732,Danish rise,5732,6,[-3  3 -1 -2  0  0],5375.0,35.5,crit,-0.5
5781,Danish sediment,5781,10,[-3  1 -3 -3  2 -3  0 -3 -2  3],8276.9,32.8,crit,-1.1
13068,Danish shoot,13068,5,[-2  2  1 -3  1],6666.2,33.4,crit,-0.2
19624,Danish spite,19624,6,[ 0  0 -3 -2 -2  1],13909.0,35.166666666666664,crit,-1.0
17858,Danish suitability,17858,6,[-1  0 -1  3  2  1],4081.8333333333335,29.833333333333332,crit,0.6666666666666666
7643,Danish technician,7643,13,[ 3 -3  3  0  3  2  3  2  2  3 -3  3  3],3303.0,35.23076923076923,crit,1.6153846153846154
19428,Danish terrorism,19428,4,[ 2  3 -1  2],4770.25,28.5,crit,1.5
3286,Danish timing,3286,11,[-1  0  1 -3  3 -2 -3  1 -3 -2  1],3526.818181818182,30.545454545454547,crit,-0.7272727272727273
19739,Danish transmission,19739,4,[ 2  1 -3 -3],5525.25,47.75,crit,-0.75
1542,Danish uncertainty,1542,9,[-3 -3 -1 -2  1 -1 -3 -2 -1],4379.888888888889,26.88888888888889,crit,-1.6666666666666667
2234,Democratic advent,2234,10,[ 3 -2  3  0  1  3  0  1 -2 -3],4838.8,38.4,crit,0.4
5338,Democratic bottom,5338,7,[ 1 -3 -3 -3 -3  1 -2],3240.285714285714,28.571428571428573,crit,-1.7142857142857142
11817,Democratic canopy,11817,16,[-2 -3 -3 -3  0 -3  3 -3 -3  2  1 -3 -3 -3 -3 -1],4039.25,30.4375,crit,-1.6875
7723,Democratic chicken,7723,6,[-3  0 -3 -3 -3 -3],4992.666666666667,33.0,crit,-2.5
6063,Democratic correspondence,6063,14,[ 3  1  3  3  1  0 -1  1  3  1  3  2  3  1],4165.214285714285,30.214285714285715,crit,1.7142857142857142
580,Democratic course,580,13,[ 3  3  2  1  3  2 -3 -2 -3  3  3  1  2],5434.153846153846,33.92307692307692,crit,1.1538461538461537
3172,Democratic dragon,3172,8,[-1 -3 -3 -2 -1 -3  2 -3],4369.125,31.375,crit,-1.75
3777,Democratic economy,3777,9,[ 0 -2  3  3  2  2  3  2  2],4689.222222222223,33.333333333333336,crit,1.6666666666666667
5502,Democratic heaven,5502,19,[ 2  0  2 -3 -3  3  2  2  3  3  1  0  2 -2 -2  3  0  2  0],4496.473684210527,31.42105263157895,crit,0.7894736842105263
14681,Democratic hole,14681,6,[ 1 -3  3 -3  0  1],3807.0,26.166666666666668,crit,-0.16666666666666666
8966,Democratic inning,8966,11,[-2  0  2 -3 -2 -2 -2 -2 -1 -3 -2],5109.818181818182,31.454545454545453,crit,-1.5454545454545454
19476,Democratic lake,19476,5,[-3 -3 -3 -3 -3],2454.4,25.4,crit,-3.0
15449,Democratic lamp,15449,8,[-1 -3 -3 -3 -3 -2 -3 -3],3140.625,31.875,crit,-2.625
15806,Democratic litter,15806,7,[-2 -1  1 -3 -2 -1  1],5705.714285714285,28.142857142857142,crit,-1.0
11642,Democratic load,11642,11,[ 1 -3  3 -2  3  1 -3 -3  2 -1  0],5065.272727272727,41.09090909090909,crit,-0.18181818181818182
8856,Democratic material,8856,8,[ 0 -3  3 -3  3 -2  2  2],3945.75,35.625,crit,0.25
836,Democratic method,836,19,[ 2 -3  3  3  3  1  3  3  2  3  3  3  3 -2  2  3  3  3  2],3495.0,34.10526315789474,crit,2.1052631578947367
17712,Democratic nerve,17712,8,[ 2 -3  1 -2  0 -3 -2  1],3193.0,29.125,crit,-0.75
2880,Democratic numeracy,2880,14,[-2  0 -3 -3 -1 -2 -2 -2 -3  3  2  1  1 -3],4551.142857142857,35.5,crit,-1.0
12828,Democratic obesity,12828,10,[-2 -3 -3 -3 -1 -3 -1  3 -3 -3],5796.8,39.1,crit,-1.9
16888,Democratic poker,16888,7,[-1 -3  3 -1 -3  0 -3],4391.571428571428,34.0,crit,-1.1428571428571428
17577,Democratic postgraduate,17577,6,[ 3 -2  3  2 -1 -1],4067.6666666666665,32.0,crit,0.6666666666666666
2806,Democratic precaution,2806,15,[-2  3  3 -1  0 -2  1  0  0 -1  2 -3 -2  1 -3],4204.066666666667,32.46666666666667,crit,-0.26666666666666666
2886,Democratic presentation,2886,13,[1 3 3 3 2 0 1 1 3 3 2 1 3],4481.692307692308,34.23076923076923,crit,2.0
18524,Democratic province,18524,8,[ 1  0  2  3 -3 -1  3  3],3683.0,33.25,crit,1.0
3013,Democratic quantity,3013,9,[ 0 -2 -2  3  1  3 -3 -3  0],4751.222222222223,39.55555555555556,crit,-0.3333333333333333
14384,Democratic receptor,14384,11,[ 2 -3  1 -1 -3 -3 -3  2 -1 -2 -1],5721.909090909091,34.63636363636363,crit,-1.0909090909090908
1341,Democratic rifle,1341,13,[-3 -3 -2 -3 -3 -1 -3  0  1 -3 -2 -3  0],5635.461538461538,35.46153846153846,crit,-1.9230769230769231
2280,Democratic sediment,2280,9,[-3 -3 -3 -3  0  3 -3 -3  0],3760.777777777778,25.444444444444443,crit,-1.6666666666666667
2722,Democratic sentiment,2722,15,[ 2  3  2 -1  3 -2  2  3  3  2 -3 -3  2  2  3],3806.9333333333334,30.266666666666666,crit,1.2
889,Democratic soap,889,16,[-3 -3 -3 -3 -3 -3 -3 -3 -3 -1 -3  0 -2  3 -3 -3],3304.125,31.125,crit,-2.25
1794,Democratic strand,1794,12,[-3 -3  2 -3 -1  1  2 -2  1  2 -1  3],10983.833333333334,28.083333333333332,crit,-0.16666666666666666
11580,Democratic sudoku,11580,12,[ 0 -2 -3 -3 -3 -3 -3 -3 -3 -3 -3  0],3733.5,41.083333333333336,crit,-2.4166666666666665
14404,Democratic terrace,14404,6,[ 0 -3 -3 -3 -3 -3],4661.333333333333,39.333333333333336,crit,-2.5
2471,Democratic textbook,2471,7,[ 0 -3 -2  2 -3 -3  3],4187.857142857143,31.285714285714285,crit,-0.8571428571428571
8209,Democratic wake,8209,12,[ 1 -1  2 -2  1 -2  0 -2 -3  0 -3 -2],3819.5833333333335,39.25,crit,-0.9166666666666666
9135,Democratic warrant,9135,12,[ 1 -3 -3 -2  2  3 -1  3  0 -2  1  2],12827.666666666666,32.833333333333336,crit,0.08333333333333333
2321,Democratic warrior,2321,11,[2 3 3 1 2 2 3 2 1 2 3],4532.181818181818,31.0,crit,2.1818181818181817
9971,Dutch atom,9971,15,[-3 -2 -3 -1  1  3 -2 -2 -3 -3 -3 -2  2 -3 -1],4418.733333333334,32.86666666666667,crit,-1.4666666666666666
2656,Dutch behalf,2656,11,[-2 -3  1 -3 -2 -3  1  0 -3 -3  1],4549.545454545455,31.90909090909091,crit,-1.4545454545454546
17547,Dutch bill,17547,13,[ 2 -1 -3  3 -1  3 -3  3  0  1 -2 -2  2],3330.5384615384614,33.84615384615385,crit,0.15384615384615385
16031,Dutch buffer,16031,7,[-3  1 -2 -2 -3  3  0],2710.5714285714284,36.142857142857146,crit,-0.8571428571428571
14488,Dutch crater,14488,7,[ 0  3  0 -3 -1  2  3],10200.285714285714,33.714285714285715,crit,0.5714285714285714
7167,Dutch drainage,7167,15,[-2  3  3  0 -3  1  3 -1  1 -2 -1 -3 -3 -1  2],6578.933333333333,35.666666666666664,crit,-0.2
435,Dutch employability,435,11,[ 2  3  3  3 -3  3  0 -2  1  3  3],5401.909090909091,25.90909090909091,crit,1.4545454545454546
10299,Dutch extra,10299,8,[ 1 -2 -3 -1 -3 -1 -2 -1],5011.125,36.875,crit,-1.5
17664,Dutch foam,17664,4,[ 3  1  2 -3],3654.0,47.5,crit,0.75
12501,Dutch grass,12501,7,[ 1  0  3 -2  1  3  0],2776.8571428571427,27.714285714285715,crit,0.8571428571428571
4315,Dutch habitat,4315,11,[ 0  3  1  2  3  0 -2  3  1  3  3],4138.272727272727,34.63636363636363,crit,1.5454545454545454
5587,Dutch packet,5587,11,[ 3  3  3  0 -3  3  3 -1  0  1  2],5131.727272727273,26.636363636363637,crit,1.2727272727272727
5766,Dutch push,5766,12,[-2 -1 -3  0  1 -3 -3 -3  1 -3 -1 -3],4621.75,32.333333333333336,crit,-1.6666666666666667
2075,Dutch radiator,2075,10,[ 3  0 -2 -3  2 -3  3  2 -2  1],5949.1,39.2,crit,0.1
10052,Dutch rape,10052,7,[ 2 -1 -1 -1 -3 -2 -3],5164.0,28.285714285714285,crit,-1.2857142857142858
20022,Dutch recorder,20022,3,[1 1 3],4877.333333333333,45.0,crit,1.6666666666666667
2711,Dutch reservation,2711,17,[ 2  2 -3  2  0 -3  2  1  2  3  1 -3  2  2 -1  1 -3],6030.882352941177,34.294117647058826,crit,0.4117647058823529
9968,Dutch scripture,9968,11,[ 2  1 -1  0  3  3  0  2  0  1  1],5488.636363636364,37.09090909090909,crit,1.0909090909090908
18942,Dutch software,18942,7,[3 0 0 2 2 3 3],3399.4285714285716,33.714285714285715,crit,1.8571428571428572
6036,Dutch temptation,6036,11,[-1 -3  0 -3 -3  3  0 -3 -3 -3  1],5034.909090909091,36.0,crit,-1.3636363636363635
12149,Dutch throat,12149,8,[ 0  1  2 -1 -3 -3 -3 -3],4931.625,35.0,crit,-1.25
3399,English accessibility,3399,14,[ 0  2  3 -1  1 -2  2  3  2  1  3  2 -2  2],4427.714285714285,29.071428571428573,crit,1.1428571428571428
1682,English cleaning,1682,7,[ 2  0  1 -3 -3 -3 -3],3830.1428571428573,35.0,crit,-1.2857142857142858
7562,English communion,7562,4,[ 3  2 -3  2],4290.25,32.0,crit,1.0
2832,English medication,2832,9,[ 2 -1  2  3  0 -3  3  1  3],3481.777777777778,34.888888888888886,crit,1.1111111111111112
11181,English merit,11181,12,[ 2 -3  0 -1  1  3  0  1 -3  1  1 -3],3308.3333333333335,27.5,crit,-0.08333333333333333
3082,English negligence,3082,12,[ 2  2  2  0 -3  2  2  3  1  1  0  0],5015.75,31.416666666666668,crit,1.0
11307,English popularity,11307,10,[0 2 2 2 3 2 2 3 1 3],2737.0,33.2,crit,2.0
9707,English reconciliation,9707,8,[-2  0 -2 -1 -1 -2 -1 -1],13868.875,32.25,crit,-1.25
2203,English strap,2203,12,[-3 -2 -1 -2  3  0 -1 -1  0 -3 -3 -3],4224.0,32.666666666666664,crit,-1.3333333333333333
11375,European arc,11375,10,[-1 -1  1 -1  0 -3 -3 -2  2  3],4567.7,27.9,crit,-0.5
10464,European bin,10464,11,[-1  3 -3  3 -3  3 -3  3 -3  0  3],3097.181818181818,33.36363636363637,crit,0.18181818181818182
10987,European bowl,10987,12,[ 1  0 -1  3  3  3  3  2 -3  3 -1  2],9484.916666666666,29.916666666666668,crit,1.25
16872,European breadth,16872,7,[ 1 -3 -3 -2 -1 -1 -1],4731.714285714285,36.57142857142857,crit,-1.4285714285714286
27,European bush,27,8,[ 3  1  1  1 -1 -3  3  1],2999.75,31.0,crit,0.75
15071,European diabetes,15071,7,[-3 -2  1  3 -3  2 -3],7144.0,39.42857142857143,crit,-0.7142857142857143
1985,European dignity,1985,11,[ 3 -3  1  3  1  3  3 -3  1  2  3],13481.454545454546,31.363636363636363,crit,1.2727272727272727
1012,European dollar,1012,9,[-2  3 -3 -3 -1 -3  2 -3 -3],7322.222222222223,28.22222222222222,crit,-1.4444444444444444
2961,European minute,2961,7,[-1 -1 -3 -3  2 -3  2],3244.714285714286,29.0,crit,-1.0
19150,European radar,19150,4,[3 2 3 3],4693.75,30.75,crit,2.75
10719,European redundancy,10719,12,[ 2 -3  1 -1  3 -3 -2  2  0  1 -1  2],4959.083333333333,32.916666666666664,crit,0.08333333333333333
19425,European staircase,19425,4,[ 2  1 -3  0],6171.75,31.5,crit,0.0
19485,European trunk,19485,5,[ 3  2 -3  2 -3],2779.6,28.6,crit,0.2
9602,French canopy,9602,8,[ 0 -1  3 -3  3 -2 -3  3],4207.25,31.0,crit,0.0
5736,French competence,5736,9,[ 3 -3  3  3  2  3  0 -2  3],3776.8888888888887,34.55555555555556,crit,1.3333333333333333
2366,French dioxide,2366,8,[-3 -2 -3 -1 -3 -2 -3 -3],4136.625,39.0,crit,-2.5
16983,French disappointment,16983,7,[ 1 -2 -2 -2  2 -2  3],3548.8571428571427,25.857142857142858,crit,-0.2857142857142857
11263,French disclosure,11263,7,[ 1 -2 -3  3 -1  3 -3],5325.285714285715,34.857142857142854,crit,-0.2857142857142857
8159,French forefront,8159,11,[ 0  0 -3  2 -3  3  0 -1  3 -3 -1],5970.727272727273,30.09090909090909,crit,-0.2727272727272727
6913,French fur,6913,13,[ 2  3  1  2  3  3  2  2  1 -2 -1 -3  2],3219.769230769231,33.30769230769231,crit,1.1538461538461537
2827,French guardian,2827,14,[ 3  3  1  3  3  3  3  3 -3  3  2 -1  1  1],3143.714285714286,32.42857142857143,crit,1.7857142857142858
14277,French litre,14277,8,[-3 -3 -3  0 -2 -1  0  3],4016.375,33.75,crit,-1.125
3859,French minimum,3859,8,[ 3 -1  2 -2 -3 -3 -2 -3],4126.5,43.625,crit,-1.125
8899,French nitrogen,8899,7,[ 0 -3 -3 -3  1 -2 -1],6624.714285714285,35.0,crit,-1.5714285714285714
4506,French stomach,4506,7,[-2 -3 -2 -2 -3  2  0],3210.285714285714,26.714285714285715,crit,-1.4285714285714286
1646,French substitution,1646,15,[ 1  2  0  3 -2 -3 -2 -2  1  1  3  1  1  3  2],7511.066666666667,29.066666666666666,crit,0.6
1436,French wait,1436,9,[-3 -3 -3 -1 -3  1 -3 -1 -3],2584.222222222222,28.333333333333332,crit,-2.111111111111111
9316,German assignment,9316,5,[2 3 1 2 1],6473.2,30.2,crit,1.8
4032,German browser,4032,10,[ 3  2  3  3  1  0  3  1 -2  0],6413.8,29.9,crit,1.4
4284,German consulting,4284,12,[ 0  3  3  1  3  0  3  3  2  3  3 -3],3480.8333333333335,28.916666666666668,crit,1.75
13320,German decrease,13320,12,[-1 -1  1  2  0 -3 -2 -2 -3 -3  2  0],3983.0,40.083333333333336,crit,-0.8333333333333334
5149,German disability,5149,13,[-3  3 -2 -3  0 -3 -3 -2 -3 -3 -3 -3 -3],4537.384615384615,36.46153846153846,crit,-2.1538461538461537
10910,German hook,10910,8,[ 0  0  0  3 -1 -3  3  0],4116.75,31.0,crit,0.25
13363,German impulse,13363,8,[ 1 -3  1  1  0 -2  3  1],8647.125,27.875,crit,0.25
19379,German indicator,19379,4,[ 3 -1 -1  3],3715.25,25.5,crit,1.0
17590,German journey,17590,11,[-1  3  0  3  2  1  1  3  3 -2  1],4372.545454545455,29.727272727272727,crit,1.2727272727272727
6193,German lock,6193,11,[-1 -3  0  2  0  3  3  3  3  3  0],4695.272727272727,33.36363636363637,crit,1.1818181818181819
6044,German luxury,6044,14,[ 1  3  3  3  2  3  2  2  3 -1  3  1  3  1],3369.214285714286,31.285714285714285,crit,2.0714285714285716
14665,German modem,14665,10,[ 2  3  2  0  1 -3 -1  3  3  3],8928.9,31.4,crit,1.3
10836,German negligence,10836,11,[ 3 -1  1  3  2  1  3  1  3  3  3],4377.545454545455,33.63636363636363,crit,2.0
3522,German queue,3522,9,[ 3  1  2 -1 -1 -1 -3  1 -3],5296.333333333333,34.22222222222222,crit,-0.2222222222222222
5507,German suspension,5507,10,[ 3  3 -3  3  1  3  3  0 -3 -1],3665.4,27.5,crit,0.9
3750,German tear,3750,13,[ 1  3 -1 -3 -3 -3  1 -3  1  3  1 -1  3],3669.6923076923076,29.307692307692307,crit,-0.07692307692307693
7137,German terminal,7137,7,[-3  3  3  1  3  1 -3],3415.5714285714284,38.857142857142854,crit,0.7142857142857143
18496,German urine,18496,4,[-3  2  2 -1],3869.75,43.0,crit,0.0
4277,Greek badge,4277,12,[ 1  0  0  0  2 -1 -3 -1  2 -1  3  3],4010.8333333333335,28.916666666666668,crit,0.4166666666666667
8192,Greek bag,8192,11,[ 3  3 -1  3  1  2 -1 -1  2  3  3],3550.090909090909,33.27272727272727,crit,1.5454545454545454
16214,Greek baptism,16214,12,[ 2  2  3  1  3  3  3  1  3 -3  1  3],4802.666666666667,33.583333333333336,crit,1.8333333333333333
3359,Greek basement,3359,11,[-3  2  0 -3  3 -3  3  2  0 -3  2],5962.272727272727,34.81818181818182,crit,0.0
14793,Greek blanket,14793,8,[ 3 -2  3  2  2  3 -2 -3],3995.125,36.75,crit,0.75
1438,Greek capture,1438,9,[-2  0 -3 -1  2  0 -2  0 -2],4903.0,34.888888888888886,crit,-0.8888888888888888
10442,Greek clause,10442,11,[-3  3 -1 -3 -2  3  0 -1 -2 -2 -2],4229.090909090909,37.45454545454545,crit,-0.9090909090909091
14608,Greek configuration,14608,9,[ 2  2 -1 -3  1  3 -1  2  3],3224.3333333333335,25.333333333333332,crit,0.8888888888888888
18528,Greek crap,18528,9,[ 3  2 -2  1  3 -3  3  1  2],4865.222222222223,36.111111111111114,crit,1.1111111111111112
4290,Greek dock,4290,11,[ 1  0  1 -3  2  0  2 -3  3  1 -3],17804.636363636364,38.45454545454545,crit,0.09090909090909091
18165,Greek encouragement,18165,6,[-2 -3  2  1  3 -2],3700.1666666666665,31.5,crit,-0.16666666666666666
11162,Greek greenhouse,11162,13,[-2  3 -1  3  3  0 -3  1 -1  1  2  2  1],4989.7692307692305,33.61538461538461,crit,0.6923076923076923
14847,Greek hill,14847,6,[-3  3  2  0  3 -1],4334.833333333333,31.333333333333332,crit,0.6666666666666666
14326,Greek hydrogen,14326,13,[-2 -3 -2  3  2  1 -3  0 -3  2 -2 -2 -3],8985.461538461539,31.692307692307693,crit,-0.9230769230769231
12837,Greek pest,12837,6,[-2  1 -1  2 -2 -3],7498.666666666667,26.5,crit,-0.8333333333333334
7296,Greek precaution,7296,5,[-1  0  3  1 -3],2963.6,37.2,crit,0.0
9748,Greek publicity,9748,8,[-1  2 -3  3  3  2  0 -3],6938.375,43.0,crit,0.375
8463,Greek resurrection,8463,8,[ 2  1  2 -2  0  0  3 -3],3682.375,32.125,crit,0.375
6770,Greek rubbish,6770,9,[ 3  1  0  3  3 -3  1  0 -3],3608.4444444444443,39.333333333333336,crit,0.5555555555555556
18373,Greek severity,18373,11,[-3 -1  2  3 -2  1  2  2 -3  1  1],4374.818181818182,32.18181818181818,crit,0.2727272727272727
7479,Greek staircase,7479,12,[ 1  3  2  2  3  3  2 -2  3 -1 -3  1],3470.5833333333335,36.0,crit,1.1666666666666667
15509,Greek stimulus,15509,9,[-3 -3  1 -3 -2 -3 -2  0  1],5127.777777777777,32.111111111111114,crit,-1.5555555555555556
8540,Greek storyline,8540,6,[ 3  2  3  3 -2  1],3505.5,36.333333333333336,crit,1.6666666666666667
10890,Greek workload,10890,16,[ 3 -2 -1  1 -1 -2  1 -2 -3  1 -2 -2 -3 -3  0  1],4283.25,32.0625,crit,-0.875
16026,Indian abortion,16026,9,[ 3  0  0  0  3  3  2 -3 -3],4240.0,36.0,crit,0.5555555555555556
16052,Indian decay,16052,7,[-1 -2  1  0  0 -3 -1],4168.571428571428,37.0,crit,-0.8571428571428571
1312,Indian fantasy,1312,10,[2 2 3 2 3 3 3 0 2 1],4520.7,36.2,crit,2.1
4268,Indian favor,4268,7,[ 1 -2  3 -1  0  1 -1],3855.5714285714284,40.57142857142857,crit,0.14285714285714285
6296,Indian favour,6296,12,[-2 -3 -3 -3  2 -1 -3 -1 -3 -3  2 -1],5592.0,37.166666666666664,crit,-1.5833333333333333
272,Indian firearm,272,9,[ 3  3  2  2 -2  2  3  3  2],7241.444444444444,31.11111111111111,crit,2.0
1113,Indian hell,1113,7,[-3  1  2  1 -2  3  1],4123.0,27.285714285714285,crit,0.42857142857142855
12952,Indian landfill,12952,5,[2 1 2 2 3],21336.2,39.6,crit,2.0
10870,Indian litigation,10870,12,[ 1  0 -3  2 -2  2  1  1  0 -3 -3 -2],3465.8333333333335,39.333333333333336,crit,-0.5
17642,Indian morality,17642,12,[ 1  1  0  2  3  3 -1 -2  1  2 -1  2],3637.5,32.583333333333336,crit,0.9166666666666666
6062,Indian newsletter,6062,14,[ 3  3  3  3  3  3 -2  0  3  1  3  3  3  3],3762.5714285714284,33.5,crit,2.2857142857142856
3304,Indian particular,3304,7,[-2  1 -3 -3 -3  3 -1],4123.285714285715,25.142857142857142,crit,-1.1428571428571428
16504,Indian plaque,16504,6,[-3  3  2 -2  2 -3],5842.833333333333,29.0,crit,-0.16666666666666666
17708,Indian platinum,17708,11,[ 1  1 -1  3  2 -3  0 -3 -3  1  0],3650.4545454545455,27.0,crit,-0.18181818181818182
19011,Indian proposition,19011,7,[ 2 -3 -3  3  2 -3 -3],3754.714285714286,35.714285714285715,crit,-0.7142857142857143
17886,Indian ram,17886,4,[ 3  0 -1 -1],10397.5,28.25,crit,0.25
4552,Indian regard,4552,10,[-1  3 -3 -1 -3  1 -3  2 -2 -3],3958.9,30.4,crit,-1.0
571,Indian rowing,571,14,[ 2 -2 -2 -1 -3  1 -2  0 -3  3  3  3  1 -2],4424.785714285715,29.214285714285715,crit,-0.14285714285714285
17462,Indian ski,17462,12,[-2 -3  2  1 -3 -1  0 -2 -3 -3 -3  2],5484.333333333333,32.416666666666664,crit,-1.25
3449,Indian telescope,3449,13,[-3  1 -3  2  1  3  3  3 -1  1  3  2  2],3755.4615384615386,32.07692307692308,crit,1.0769230769230769
14202,Indian verdict,14202,12,[ 1 -2  3  2 -2 -3  2  1 -3 -3 -1 -3],2857.6666666666665,34.0,crit,-0.6666666666666666
3710,Indian viewing,3710,10,[ 1 -3 -2  3 -3 -2  3 -3 -3 -2],7295.1,29.7,crit,-1.1
14221,Iraqi anniversary,14221,7,[ 3  3 -3  2  0 -2 -1],5463.428571428572,41.57142857142857,crit,0.2857142857142857
5118,Iraqi astronomer,5118,10,[ 3  3  3  3  3  1  2  3  3 -1],3949.0,29.9,crit,2.3
15729,Iraqi awareness,15729,7,[ 0  1 -3  1  3 -3  1],3963.0,32.714285714285715,crit,0.0
7471,Iraqi boyfriend,7471,10,[ 2  3 -1  3  2  3  3  3  2  3],3420.6,31.5,crit,2.3
4803,Iraqi bracket,4803,17,[ 0 -3 -1 -3 -3 -3 -2  3 -3 -3  1 -3 -3 -3 -2 -3  0],4885.235294117647,35.76470588235294,crit,-1.8235294117647058
932,Iraqi bull,932,14,[ 1  2  3  2  1 -2  3 -3 -2  1  1  3  3  2],5105.214285714285,34.857142857142854,crit,1.0714285714285714
10313,Iraqi daughter,10313,6,[ 3  3  3  3  3 -3],4554.0,28.833333333333332,crit,2.0
13918,Iraqi dismissal,13918,6,[ 1  2  3 -1 -1  2],5411.166666666667,34.666666666666664,crit,1.0
2427,Iraqi download,2427,13,[-3 -3 -3 -3 -3 -3 -3 -1 -3 -3 -3 -3  0],3448.0,29.076923076923077,crit,-2.6153846153846154
19810,Iraqi exclusion,19810,6,[ 1 -1  2 -1  1  3],3002.3333333333335,31.833333333333332,crit,0.8333333333333334
15802,Iraqi extension,15802,11,[ 1  1 -3 -3 -2 -3 -3 -2  1 -1 -1],7642.545454545455,30.363636363636363,crit,-1.3636363636363635
11508,Iraqi fairy,11508,12,[-3  3  3 -3 -2 -2  0 -1  1  1  2 -3],5476.833333333333,33.0,crit,-0.3333333333333333
19628,Iraqi guideline,19628,9,[ 1  2  2  3  1 -1  1  1 -2],4154.666666666667,30.88888888888889,crit,0.8888888888888888
12140,Iraqi hit,12140,9,[ 2 -2 -3  2  0 -1  0  3  3],4783.444444444444,36.0,crit,0.4444444444444444
11655,Iraqi hull,11655,7,[ 1 -2  0 -3 -3 -2  1],5606.0,36.57142857142857,crit,-1.1428571428571428
7800,Iraqi identifier,7800,9,[-3 -3  1  1  3  3 -2  3 -1],3836.1111111111113,31.77777777777778,crit,0.2222222222222222
8467,Iraqi jury,8467,10,[ 2  3  1  3  3  2  2  3 -3 -2],3517.6,32.9,crit,1.4
16095,Iraqi landowner,16095,9,[ 3  3  3  3  0  3  2 -3  3],9948.666666666666,32.22222222222222,crit,1.8888888888888888
14405,Iraqi memorial,14405,9,[3 1 3 3 1 2 2 3 3],6115.0,37.888888888888886,crit,2.3333333333333335
8324,Iraqi organ,8324,11,[-3 -3 -3 -3  1  2  0 -1 -3 -3 -1],13141.454545454546,33.54545454545455,crit,-1.5454545454545454
18299,Iraqi pepper,18299,5,[ 2 -2  1 -2  3],4276.4,40.4,crit,0.4
5062,Iraqi perfection,5062,13,[-3  1 -3 -3  1  0  1 -3 -3  0 -3  2 -1],5134.538461538462,31.0,crit,-1.0769230769230769
10832,Iraqi pest,10832,11,[ 2  3 -3 -3  1 -3 -1 -3 -2  2  2],4183.272727272727,32.54545454545455,crit,-0.45454545454545453
19513,Iraqi potato,19513,6,[-3  3  1  1  3  1],5305.333333333333,34.166666666666664,crit,1.0
464,Iraqi pound,464,10,[ 0 -2 -3  3 -2  2  2 -1  2 -1],8616.8,26.5,crit,0.0
13133,Iraqi race,13133,12,[ 2  3 -1  3 -2 -3  2  2  3  3  3  1],6573.25,28.833333333333332,crit,1.3333333333333333
13563,Iraqi reading,13563,9,[ 0  1 -2  3 -1  1 -3 -3 -1],6555.555555555556,32.666666666666664,crit,-0.5555555555555556
4026,Iraqi refreshment,4026,13,[-2 -3  2  3 -2  2  3  2 -1  3  2 -3 -3],3871.4615384615386,27.692307692307693,crit,0.23076923076923078
14877,Iraqi rider,14877,5,[-3  2  3 -2  2],4225.2,29.6,crit,0.4
19541,Iraqi rugby,19541,5,[ 3  3  1 -2  3],2761.6,33.2,crit,1.6
18086,Iraqi search,18086,11,[-2  3 -2  2 -3  2  3 -1  3  3 -3],3609.5454545454545,32.81818181818182,crit,0.45454545454545453
1657,Iraqi shift,1657,11,[ 2  1  2 -2 -2 -3 -3 -3 -2  3  3],6708.545454545455,37.72727272727273,crit,-0.36363636363636365
17119,Iraqi simplicity,17119,9,[ 2 -3 -2 -3 -2 -3 -3  0 -2],4930.111111111111,32.666666666666664,crit,-1.7777777777777777
5114,Iraqi simulation,5114,9,[ 1  3 -1  2 -2 -1  2  2 -3],4168.444444444444,26.666666666666668,crit,0.3333333333333333
18914,Iraqi sociology,18914,7,[ 2 -3  2  3  3  2  3],5301.571428571428,31.142857142857142,crit,1.7142857142857142
11976,Iraqi spelling,11976,11,[ 3  0 -3  1  1  3  2 -2  1 -3  1],7487.0,27.727272727272727,crit,0.36363636363636365
14666,Iraqi spin,14666,12,[ 0 -1 -2  3  2 -2 -3  0  1 -2 -3 -3],7903.583333333333,35.583333333333336,crit,-0.8333333333333334
8360,Iraqi spiral,8360,9,[-2 -3 -3 -3 -2 -3 -2 -3  3],6789.666666666667,26.77777777777778,crit,-2.0
1093,Iraqi steel,1093,8,[ 3 -3  3  3 -3  0  2  3],6577.5,31.5,crit,1.0
1619,Iraqi suite,1619,13,[ 2  0  3  0 -2  3 -3 -3  2 -3  0 -2  1],8347.384615384615,29.076923076923077,crit,-0.15384615384615385
6040,Iraqi sum,6040,12,[ 0 -3 -1  0 -2 -1 -2 -3  0 -2 -2 -3],9086.5,29.083333333333332,crit,-1.5833333333333333
12147,Iraqi switch,12147,12,[ 2 -3  3  2 -3 -3  0 -2 -3  0 -3  0],3810.4166666666665,35.916666666666664,crit,-0.8333333333333334
7447,Iraqi sword,7447,13,[ 0 -3 -3  3  3 -3  2  3 -1  3 -2  3  2],4852.076923076923,35.30769230769231,crit,0.5384615384615384
14667,Iraqi terrain,14667,8,[3 3 3 1 3 3 2 3],5188.375,38.0,crit,2.625
8955,Iraqi tolerance,8955,12,[-3  0 -3  2  3  3 -1 -3  0 -3  2  3],4318.833333333333,37.166666666666664,crit,0.0
2036,Iraqi warranty,2036,12,[-3 -3 -1 -3 -3 -2 -1 -3  2 -3 -3 -2],5643.416666666667,32.25,crit,-2.0833333333333335
3008,Iraqi wildlife,3008,8,[-2  2  3  2  2  0  0  2],5420.125,26.375,crit,1.125
5416,Irish DNA,5416,17,[ 3  3  3  3  3  3  3  3  3  1 -3  3  3  3  2  3  3],3239.0,30.41176470588235,crit,2.4705882352941178
10960,Irish accessibility,10960,9,[-3  1  3  2  0 -3  2  3 -3],9940.0,35.44444444444444,crit,0.2222222222222222
8205,Irish bonus,8205,11,[ 1  3 -2  3  1 -3 -2  1  3 -1  1],5768.909090909091,34.18181818181818,crit,0.45454545454545453
4185,Irish bureaucracy,4185,9,[3 3 0 3 3 2 0 3 2],4929.666666666667,39.333333333333336,crit,2.111111111111111
6614,Irish cab,6614,13,[3 2 1 1 0 3 2 1 3 2 2 1 3],4115.076923076923,29.46153846153846,crit,1.8461538461538463
19678,Irish combat,19678,2,[2 3],2481.5,26.5,crit,2.5
9129,Irish cult,9129,8,[ 3 -1  2  3  1  3  3  1],4929.75,29.75,crit,1.875
16907,Irish disk,16907,7,[ 0  2 -2 -1  3  1 -2],4680.428571428572,39.714285714285715,crit,0.14285714285714285
15399,Irish kilometre,15399,11,[ 0 -3  1 -2 -3 -3 -3 -3 -3 -3 -2],4127.909090909091,34.0,crit,-2.1818181818181817
3428,Irish lender,3428,12,[ 3  3  3  2 -1 -2  2  3 -2  0  3  1],5376.916666666667,38.083333333333336,crit,1.25
10428,Irish licensing,10428,12,[ 2 -3  2  3  1 -3  3  1 -1 -2  3  2],9302.583333333334,41.833333333333336,crit,0.6666666666666666
5953,Irish midnight,5953,14,[ 3  0 -3 -1 -3 -1 -2 -3  0 -3  1  2  0  1],3747.4285714285716,31.785714285714285,crit,-0.6428571428571429
13632,Irish nucleus,13632,7,[ 0 -3 -2  2 -3 -3  1],2745.4285714285716,32.0,crit,-1.1428571428571428
4511,Irish pond,4511,19,[ 3  3 -3  2  3 -3  3  2  2  3  3  3  2 -3  2  3 -2  3  3],3207.157894736842,37.21052631578947,crit,1.5263157894736843
1541,Irish praise,1541,10,[-2  0 -3 -3  0  3 -3 -1  3  3],3917.2,34.6,crit,-0.3
734,Irish quotation,734,4,[-1  2  3  0],3791.75,31.0,crit,1.0
18778,Irish rabbit,18778,8,[3 3 3 3 2 3 0 3],5125.875,34.625,crit,2.5
14254,Irish rape,14254,9,[-2 -3 -3 -3 -3 -3 -2  1 -3],4060.3333333333335,33.77777777777778,crit,-2.3333333333333335
4415,Irish remit,4415,17,[ 1  1 -3  2 -3 -1 -1 -3 -1 -2 -3 -2  1 -3 -2  0 -3],6806.764705882353,34.23529411764706,crit,-1.2941176470588236
5035,Irish shade,5035,15,[-3 -3 -3 -1  0  2 -3 -1 -3 -1  2 -2  0 -1  0],4666.2,28.4,crit,-1.1333333333333333
19031,Islamic Internet,19031,7,[ 1 -3  0  2 -2  2  0],5643.714285714285,34.285714285714285,crit,0.0
4866,Islamic absorption,4866,9,[-3  1 -2  0  1 -2  3  3 -1],5309.555555555556,38.0,crit,0.0
16021,Islamic alphabet,16021,11,[ 3  3  3  3  3  3  3  3 -3  0  3],10781.363636363636,38.63636363636363,crit,2.1818181818181817
14764,Islamic autobiography,14764,10,[ 2  2  3  0  2  2 -3  3  1  2],4918.2,33.8,crit,1.4
3927,Islamic bundle,3927,10,[-3 -3  3 -3 -3 -2 -3 -2 -3 -2],3309.3,32.2,crit,-2.1
12160,Islamic contamination,12160,10,[-3  0 -2  3  2 -3  1  1  1  3],3099.7,32.3,crit,0.3
11340,Islamic controller,11340,5,[ 0  1  2  2 -1],4332.0,35.2,crit,0.8
11416,Islamic copy,11416,5,[ 0  2 -2 -1  3],3077.8,31.6,crit,0.4
7616,Islamic creator,7616,14,[ 2  3  1  1  0 -3  3 -1  3  0 -3  1  3  2],5860.214285714285,31.857142857142858,crit,0.8571428571428571
8693,Islamic demon,8693,10,[ 0 -2 -2 -3  3 -3 -1  3 -1 -3],4702.7,30.4,crit,-0.9
5660,Islamic diameter,5660,12,[-3 -3 -3 -2 -3 -3 -3 -3 -3 -3 -3 -3],3322.8333333333335,30.416666666666668,crit,-2.9166666666666665
1652,Islamic disciple,1652,13,[3 2 3 1 3 3 2 1 1 1 2 1 3],3669.846153846154,30.23076923076923,crit,2.0
15772,Islamic disposal,15772,11,[ 1  2 -3  3 -1 -3  1  2  3 -1 -3],4261.545454545455,29.727272727272727,crit,0.09090909090909091
18218,Islamic dispute,18218,11,[ 0  0  3  2  3  1  0  2 -1  2  2],3590.0,30.727272727272727,crit,1.2727272727272727
16404,Islamic dock,16404,9,[-3 -1  1 -1  2 -3  0  1 -2],3539.8888888888887,35.888888888888886,crit,-0.6666666666666666
12970,Islamic downtown,12970,9,[ 1  2 -3 -3 -3 -2 -3 -1  3],4181.333333333333,30.88888888888889,crit,-1.0
2800,Islamic glance,2800,7,[-2 -3 -3 -1 -3 -2  0],3270.5714285714284,28.714285714285715,crit,-2.0
6282,Islamic hormone,6282,16,[-2 -1 -3 -3 -3 -3 -3 -3 -2 -2  0 -3 -3 -3 -2 -2],4086.3125,33.0625,crit,-2.375
7313,Islamic lab,7313,9,[-1  3  3  3 -2 -1 -1  1  2],3580.4444444444443,36.22222222222222,crit,0.7777777777777778
2193,Islamic luggage,2193,5,[-3 -2 -2  3 -2],3554.8,28.2,crit,-1.2
10132,Islamic missile,10132,8,[ 2  3 -3  3  3 -1  2  3],3360.875,27.875,crit,1.5
17623,Islamic motor,17623,8,[-3  3  2 -3  1 -1  2  2],3477.5,34.875,crit,0.375
744,Islamic passing,744,13,[-2 -2 -1  2 -3  3 -3 -3 -2  2  0  3 -3],3721.923076923077,34.0,crit,-0.6923076923076923
4092,Islamic plasma,4092,10,[-2 -3 -2 -3 -3 -3 -3 -3 -2 -3],3081.2,28.7,crit,-2.7
7107,Islamic removal,7107,7,[-3  0  2  3  3  2 -3],3569.4285714285716,42.714285714285715,crit,0.5714285714285714
5268,Islamic spreadsheet,5268,5,[-3 -1  1  1 -3],3751.6,27.2,crit,-1.0
2016,Islamic squash,2016,10,[-1 -2 -3 -3 -1 -3 -3 -2 -2  1],3783.5,30.7,crit,-1.9
9993,Islamic stem,9993,12,[ 2  0  1  0 -3  3  1  0  1 -3  0  0],5020.583333333333,26.916666666666668,crit,0.16666666666666666
10195,Islamic suspicion,10195,12,[ 3  0  3  0  1 -3  1  3  1 -3 -3  0],4720.5,38.0,crit,0.25
341,Islamic synopsis,341,8,[ 2 -1 -3  0  1  3  0  3],5091.125,30.875,crit,0.625
3342,Islamic tournament,3342,14,[-3  1 -2  3  2 -1  2  3  3  3  0 -3  0  2],6270.714285714285,32.357142857142854,crit,0.7142857142857143
12793,Islamic widow,12793,14,[ 3  3 -2  2  3  3  2  3  3  3 -3  3  0  2],4791.5,41.214285714285715,crit,1.7857142857142858
1206,Israeli advancement,1206,5,[-1 -3  0  2  2],3757.4,29.4,crit,0.0
13671,Israeli arrival,13671,14,[ 3  3 -2  2 -3  3  2  0 -3  2  3  3 -3  3],3718.3571428571427,31.785714285714285,crit,0.9285714285714286
19573,Israeli atom,19573,6,[-3  3  2 -2 -3 -3],3533.5,35.666666666666664,crit,-1.0
11057,Israeli batch,11057,7,[-3  1 -3  1  1  1 -1],3166.1428571428573,30.714285714285715,crit,-0.42857142857142855
8754,Israeli boiler,8754,10,[-3  3 -3 -3 -3 -3  0 -3 -2 -3],4851.9,38.22222222222222,crit,-2.0
8525,Israeli castle,8525,10,[3 3 3 3 3 2 3 3 3 3],3356.7,30.0,crit,2.9
7073,Israeli detective,7073,6,[3 3 3 3 3 2],4086.5,28.333333333333332,crit,2.8333333333333335
19934,Israeli discipline,19934,3,[-2 -2  3],5271.666666666667,25.666666666666668,crit,-0.3333333333333333
14851,Israeli diving,14851,11,[-3  0 -2  1 -3  1 -3  1 -2 -3 -1],5718.454545454545,35.18181818181818,crit,-1.2727272727272727
12382,Israeli employability,12382,4,[ 1  0 -2 -2],7332.75,29.0,crit,-0.75
17408,Israeli frequency,17408,14,[-3  2 -3 -2 -3 -3 -3 -3 -3  2 -3 -3 -3 -2],5087.714285714285,31.928571428571427,crit,-2.142857142857143
13550,Israeli globe,13550,8,[-3 -3 -3  1  3 -2 -1 -3],4564.625,27.75,crit,-1.375
4238,Israeli gravel,4238,11,[ 2  0  0  2  2 -3 -3  2  3  2  3],6240.090909090909,34.09090909090909,crit,0.9090909090909091
14133,Israeli hockey,14133,8,[-3  0 -3 -3  3 -1  3 -3],3689.0,39.25,crit,-0.875
6901,Israeli inside,6901,11,[-3 -3 -1  1 -1  3 -3 -3 -1 -3  2],3764.181818181818,32.72727272727273,crit,-1.0909090909090908
2863,Israeli leak,2863,8,[ 3  3  0  1  0 -3  1 -2],3228.75,36.0,crit,0.375
8530,Israeli leap,8530,10,[-3 -3 -1  0 -3  2 -2 -3  2 -2],3387.0,36.1,crit,-1.3
6335,Israeli mall,6335,8,[ 2  3  2  3  1  3  2 -3],3873.25,29.5,crit,1.625
19418,Israeli midwife,19418,13,[2 2 0 0 3 3 3 3 3 2 3 3 2],3292.3076923076924,28.23076923076923,crit,2.230769230769231
13125,Israeli object,13125,10,[ 2  0  3  1  2 -1  0  3  3  2],3911.9,34.2,crit,1.5
11840,Israeli offering,11840,18,[ 1  3  1  2  1  3 -1  1  1 -1  3 -3  3  3  3  1 -3  2],4470.944444444444,31.61111111111111,crit,1.1111111111111112
5890,Israeli packaging,5890,8,[ 3 -2 -3  2 -2 -3  3  2],3993.25,29.875,crit,0.0
14721,Israeli parking,14721,13,[ 3 -2 -3 -2 -3 -2 -1 -3  3  3 -3  0  3],3979.769230769231,36.61538461538461,crit,-0.5384615384615384
19712,Israeli passing,19712,8,[ 0  0  1 -2 -3  2 -3 -3],6446.0,34.25,crit,-1.0
104,Israeli planet,104,9,[-3 -3  2 -3 -3 -2 -1 -3 -3],4139.555555555556,35.5,crit,-2.111111111111111
19295,Israeli receptor,19295,5,[ 2  1 -3 -3  2],5664.6,31.2,crit,-0.2
16051,Israeli rep,16051,11,[ 2 -3 -3 -3 -2  0  3  1 -3  1  0],3654.7272727272725,31.636363636363637,crit,-0.6363636363636364
17597,Israeli retrieval,17597,7,[-3  0 -3  2  1  0  3],2364.0,28.428571428571427,crit,0.0
10475,Israeli scratch,10475,11,[-3  0 -2  1 -2 -3 -2 -3 -3 -3 -3],3803.2727272727275,32.63636363636363,crit,-2.090909090909091
13155,Israeli scrutiny,13155,8,[-2  3 -2 -1  2  2 -2  3],2839.125,29.5,crit,0.375
18161,Israeli sensor,18161,9,[ 1 -3  1 -3  1  3  2  1 -2],4478.222222222223,30.0,crit,0.1111111111111111
18381,Israeli sequel,18381,10,[ 3 -2 -3 -3 -2  3  0  2  2  3],4371.2,31.4,crit,0.3
19706,Israeli skill,19706,7,[ 1  3 -3 -2  3 -2  1],3139.1428571428573,31.142857142857142,crit,0.14285714285714285
15194,Israeli spiral,15194,11,[ 2 -3  0 -2 -3  3  1 -2 -3  1 -3],7264.272727272727,29.818181818181817,crit,-0.8181818181818182
18518,Israeli stick,18518,8,[ 0  0 -3  3 -1  0 -3 -2],4154.125,32.75,crit,-0.75
10662,Israeli suit,10662,5,[-3  0  3  3 -2],2871.4,31.6,crit,0.2
8362,Israeli tape,8362,16,[-1  3 -1 -3  0  3 -3 -1 -2  0  3 -3  0 -3  2  3],3724.5625,35.5625,crit,-0.1875
17923,Israeli testing,17923,5,[-2  2 -3  3  3],4749.4,36.6,crit,0.6
2370,Israeli texture,2370,14,[-3 -3  0 -2  3 -2  3 -3 -3 -2 -3  1 -3  3],3960.214285714286,32.714285714285715,crit,-1.0
7402,Israeli valuation,7402,8,[-2 -2  0 -3  3 -1  1 -2],3189.125,23.875,crit,-0.75
10246,Italian Christianity,10246,13,[ 3 -3  2  3 -1  0 -1  1 -2 -2  3  1  2],4340.153846153846,33.30769230769231,crit,0.46153846153846156
17556,Italian advantage,17556,11,[ 1  3 -2  3  1 -3  3  0  3  3  2],3431.6363636363635,34.18181818181818,crit,1.2727272727272727
11686,Italian arthritis,11686,11,[-3 -3 -2 -3 -3 -3  1 -3 -3 -3 -3],4274.545454545455,30.90909090909091,crit,-2.5454545454545454
15748,Italian assertion,15748,10,[ 2 -2 -1 -3 -1  0  2  1  0 -1],7031.1,38.4,crit,-0.3
15354,Italian axe,15354,12,[ 3 -3  2  3  2  3  3  1 -3 -3  2  0],4170.75,30.333333333333332,crit,0.8333333333333334
16549,Italian batsman,16549,5,[ 2  1 -3  2  3],6534.0,24.2,crit,1.0
4091,Italian bone,4091,11,[ 3  1 -2  3 -1  3 -3  2 -3 -2  1],3070.2727272727275,28.454545454545453,crit,0.18181818181818182
4732,Italian capsule,4732,9,[ 1 -3  1  0  0  0  2 -2 -3],3905.5555555555557,32.77777777777778,crit,-0.4444444444444444
5597,Italian clue,5597,10,[ 3  3  0 -1 -3  2  1  1 -1  3],4405.4,31.1,crit,0.8
11819,Italian completion,11819,9,[-2 -2 -3  2 -3  0 -2 -3 -3],5769.888888888889,31.22222222222222,crit,-1.7777777777777777
3799,Italian diving,3799,13,[ 3  2 -3  1  1  0  0  3 -3  2 -3 -2  1],3384.230769230769,28.0,crit,0.15384615384615385
13676,Italian heat,13676,5,[ 3 -3 -3  3  1],4546.8,26.2,crit,0.2
9739,Italian implication,9739,10,[-1  1 -3  0  2  3 -1  3 -1 -1],4862.4,34.4,crit,0.2
19313,Italian induction,19313,5,[-3 -3  3 -2 -3],3207.8,26.8,crit,-1.6
721,Italian insulation,721,11,[-2 -2 -3 -1 -3  1 -2  1 -2  2 -3],2749.6363636363635,33.63636363636363,crit,-1.2727272727272727
1309,Italian insulin,1309,11,[-3 -3  0 -3 -3 -2 -3 -2 -3 -2 -1],3113.909090909091,28.818181818181817,crit,-2.272727272727273
837,Italian isolation,837,10,[-2 -1 -2  2 -3 -3  0  0 -2 -2],6091.9,32.9,crit,-1.3
19221,Italian million,19221,8,[ 2 -1 -2 -1 -3  1 -3 -3],4776.875,39.125,crit,-1.25
15499,Italian outcome,15499,9,[-2 -1  2  1  2  3 -2  1 -3],4061.8888888888887,34.44444444444444,crit,0.1111111111111111
2345,Italian phase,2345,10,[-1  2 -3  3  3  3  3  3  1  3],4316.4,38.5,crit,1.7
14734,Italian reasoning,14734,11,[ 1  1  2  3  3 -1  1  1  3 -2  3],4613.090909090909,35.18181818181818,crit,1.3636363636363635
13666,Italian storage,13666,15,[-1  3  1  3  2 -2  2 -3  2 -2  0  1  3 -1  0],3798.866666666667,38.13333333333333,crit,0.5333333333333333
11841,Italian substrate,11841,13,[ 0  1 -2 -3  3  3 -2 -3  2 -1  2 -3  1],4396.615384615385,34.46153846153846,crit,-0.15384615384615385
17011,Japanese NHS,17011,6,[-2 -1  3 -3  2  2],4536.833333333333,34.166666666666664,crit,0.16666666666666666
4297,Japanese autonomy,4297,12,[ 0 -2  0  0  3  3  3  1  3 -2  0  3],5527.083333333333,32.083333333333336,crit,1.0
1089,Japanese basement,1089,13,[ 1  3  2 -3  3  2  3  3  3  0  1  2 -3],4723.7692307692305,40.76923076923077,crit,1.3076923076923077
17297,Japanese benchmark,17297,10,[ 3  3  3 -1  1 -3  2  1 -3  3],3935.2,29.7,crit,0.9
3247,Japanese broadband,3247,8,[2 2 3 1 2 3 2 1],4189.75,25.0,crit,2.0
17159,Japanese cannabis,17159,9,[ 3  3  3 -3  3  2  3  3  1],3767.4444444444443,41.0,crit,2.0
4754,Japanese commencement,4754,7,[ 1 -2  3  2  3 -3  3],5106.0,32.42857142857143,crit,1.0
8304,Japanese discretion,8304,14,[ 0  2  0 -3  2 -2  2 -3  3  3  1  0 -1 -2],3905.1428571428573,33.57142857142857,crit,0.14285714285714285
3886,Japanese dismissal,3886,11,[ 3 -2 -3 -3  0  3 -3  3 -3 -3 -3],6534.363636363636,33.18181818181818,crit,-1.0
1638,Japanese injection,1638,16,[ 2  0 -3  1 -2 -3  1  2  2  3 -3  3 -1  2  2 -1],5374.375,35.6875,crit,0.3125
12953,Japanese kernel,12953,9,[ 3  0 -1 -3 -2 -3 -3  1 -3],18785.444444444445,31.666666666666668,crit,-1.2222222222222223
11657,Japanese meantime,11657,11,[-3  0 -2  0 -3 -3 -3 -3  0  1 -3],3850.7272727272725,33.90909090909091,crit,-1.7272727272727273
17640,Japanese metadata,17640,11,[ 2  3  3  1  2 -2  0 -1  2  1  2],4297.181818181818,34.63636363636363,crit,1.1818181818181819
5626,Japanese mud,5626,12,[ 3 -1  3  3 -3  3 -2  3  3 -3 -3  3],4172.5,36.333333333333336,crit,0.75
16674,Japanese profit,16674,13,[ 3  3  2 -1  3  3  3  0  0 -3 -1  1  3],4263.538461538462,31.0,crit,1.2307692307692308
13913,Japanese semester,13913,11,[ 2 -3  2  3  3 -3  3 -3  2 -3 -2],4803.272727272727,31.09090909090909,crit,0.09090909090909091
18186,Japanese sin,18186,5,[-2  1  3  3  1],5327.8,34.0,crit,1.2
15131,Japanese uprising,15131,9,[3 3 3 3 3 2 3 3 3],4106.111111111111,33.55555555555556,crit,2.888888888888889
13300,Japanese woodland,13300,19,[ 2  3  3  2  3  3  1  3 -3  3  3  3  2  3  3  2  3  3  0],4038.2631578947367,35.89473684210526,crit,2.210526315789474
10723,Jewish batsman,10723,14,[-2  1  3 -3 -2  2 -2 -3 -1 -3  1  0 -3 -1],3508.4285714285716,31.5,crit,-0.9285714285714286
3701,Jewish bid,3701,10,[ 3  2 -2  2  3 -3  0 -2 -3  3],5858.8,42.2,crit,0.3
6226,Jewish bombing,6226,8,[ 3  2  0 -3  3  3 -3 -3],5000.75,31.125,crit,0.25
14362,Jewish byte,14362,12,[-2 -3 -3 -3 -3 -3 -2 -3 -2  0 -2 -3],4684.75,35.75,crit,-2.4166666666666665
14904,Jewish calculator,14904,11,[-2 -1  3  3 -3  2 -2  0  0 -3 -3],3844.090909090909,38.27272727272727,crit,-0.5454545454545454
16890,Jewish casino,16890,8,[ 0 -1  2  2  2  0  2  2],8108.625,38.125,crit,1.125
3322,Jewish certainty,3322,9,[-3  1 -1 -3 -3  2  3 -2  1],3623.777777777778,31.0,crit,-0.5555555555555556
1567,Jewish checking,1567,11,[-3 -3 -2 -1 -1 -3 -3 -1  1 -3 -3],5567.545454545455,29.545454545454547,crit,-2.0
10128,Jewish cheer,10128,14,[-3 -2  3 -3 -3  2 -2  2 -3 -3  3 -2 -2  0],3970.214285714286,32.714285714285715,crit,-0.9285714285714286
3182,Jewish curiosity,3182,12,[ 3  0 -2  3  2  0  0  3  2  3 -2 -1],4197.583333333333,34.666666666666664,crit,0.9166666666666666
17936,Jewish debit,17936,10,[ 3 -1  3 -3  1 -2 -2 -3 -3  0],7716.0,35.4,crit,-0.7
6089,Jewish diamond,6089,10,[-3 -1  1  0  0  2  2  2  2  2],3306.1,28.0,crit,0.7
15493,Jewish disposal,15493,9,[-1 -2  0  1 -2  1 -3 -3  1],7080.777777777777,30.0,crit,-0.8888888888888888
10509,Jewish evaluation,10509,13,[ 0  1  3  3 -2 -2  0  1 -3  2  3  0 -1],5880.461538461538,36.69230769230769,crit,0.38461538461538464
17613,Jewish fault,17613,16,[ 0 -3 -2 -1  0  2 -2  3 -3 -2 -1 -3 -3 -3 -1  1],5634.9375,38.0625,crit,-1.125
3071,Jewish firing,3071,12,[-2 -3  0 -3 -3  0 -3 -3 -3 -3 -3 -2],4751.416666666667,33.916666666666664,crit,-2.3333333333333335
15812,Jewish globe,15812,9,[-3 -3  0  0 -1 -3 -2 -3 -2],3819.1111111111113,31.88888888888889,crit,-1.8888888888888888
10202,Jewish grade,10202,11,[ 3 -3 -2 -3 -1  1 -3 -3  1  3  0],3951.2727272727275,33.90909090909091,crit,-0.6363636363636364
736,Jewish hardware,736,11,[-2 -2 -3  2 -2 -3 -1  0 -3  2  1],4086.909090909091,31.0,crit,-1.0
6033,Jewish interval,6033,10,[-3  0 -3  3  3 -2 -3 -3 -3  1],2953.7,29.8,crit,-1.0
5569,Jewish laboratory,5569,10,[ 3  3  3  3  0  2 -3  1  3  1],4423.5,31.8,crit,1.6
9044,Jewish mansion,9044,11,[ 3  1  3  1  1 -1  3  0  2 -3  2],9430.90909090909,37.90909090909091,crit,1.0909090909090908
6209,Jewish mercy,6209,6,[ 0  3  0  0 -2  2],4001.5,33.833333333333336,crit,0.5
7944,Jewish pass,7944,10,[-1 -3 -3 -3  0  3  2 -1  2 -3],4694.3,41.7,crit,-0.7
5123,Jewish percussion,5123,16,[ 0  0  1 -3  0  3 -3  2 -2 -2  2 -3  1  1 -3 -2],5450.9375,30.875,crit,-0.5
13437,Jewish photograph,13437,8,[ 1  3  3  2  2  3  0 -2],4463.125,40.25,crit,1.5
15350,Jewish rear,15350,10,[-1 -2 -3  1 -3  0 -3 -1 -3 -1],4643.8,27.3,crit,-1.6
6144,Jewish scanner,6144,4,[-3 -3 -3 -3],3084.75,26.0,crit,-3.0
1588,Jewish scenario,1588,15,[ 3  0  0  3 -3 -3  0  2  0  3  2 -2  0  1  0],3584.866666666667,29.066666666666666,crit,0.4
15097,Jewish screening,15097,9,[-3  3 -2 -1 -3 -3  1 -3  1],3674.0,36.77777777777778,crit,-1.1111111111111112
4419,Jewish shade,4419,8,[-3 -1 -3 -2  0 -2 -1  2],5696.25,35.25,crit,-1.25
10983,Jewish snack,10983,13,[ 0  2  3  3  2 -3  1  2 -2  3 -2  3  0],5610.7692307692305,28.23076923076923,crit,0.9230769230769231
330,Jewish studio,330,12,[ 3  3 -1  2  3  3  1 -2  1  2 -2  0],3334.3333333333335,32.166666666666664,crit,1.0833333333333333
9840,Jewish test,9840,6,[-1  2 -3  1 -3  3],3818.8333333333335,28.666666666666668,crit,-0.16666666666666666
10986,Jewish tip,10986,8,[-1 -3  2  0  3 -2  3  2],5802.75,29.875,crit,0.5
6627,Jewish trout,6627,11,[-3 -3 -3 -3 -3 -1  1 -1 -3 -3 -3],4604.727272727273,31.363636363636363,crit,-2.272727272727273
2377,Jewish validity,2377,19,[ 0  3  3 -2  3  0  0  0 -1  0  0 -3 -3  2 -3  1 -3  0  2],3397.5263157894738,32.31578947368421,crit,-0.05263157894736842
4680,Jewish velocity,4680,13,[-3 -2 -3 -3 -3 -3  0 -3 -3 -3 -3  3 -2],5039.692307692308,34.46153846153846,crit,-2.1538461538461537
5787,Jewish volcano,5787,14,[-3 -3 -3 -3 -3 -3  3  3 -3 -3 -3  0 -3 -3],2542.3571428571427,35.0,crit,-1.9285714285714286
18007,Korean amendment,18007,5,[ 3 -2  2  2  2],4034.4,28.6,crit,1.4
10397,Korean barn,10397,12,[ 1 -1  3  3 -1  1 -2  3  3  1 -2  3],5191.833333333333,32.833333333333336,crit,1.0
14911,Korean beach,14911,5,[3 3 3 3 3],2667.8,34.2,crit,3.0
6730,Korean biscuit,6730,5,[3 0 0 3 2],58645.0,26.6,crit,1.6
1496,Korean bundle,1496,11,[-2 -3  3 -3  2  2 -1  1  2 -2 -3],4085.818181818182,30.727272727272727,crit,-0.36363636363636365
20016,Korean burial,20016,3,[-2  0  3],2532.3333333333335,45.0,crit,0.3333333333333333
19416,Korean coffee,19416,7,[ 2 -2  1  3  3  3  3],2866.5714285714284,29.428571428571427,crit,1.8571428571428572
6392,Korean continuity,6392,9,[-3 -3 -3  0  1  0 -3  1  1],4794.333333333333,30.555555555555557,crit,-1.0
13216,Korean corruption,13216,12,[ 3  3  2  3  3  3  3  3  2  1  2 -1],3912.3333333333335,34.0,crit,2.25
12884,Korean deed,12884,7,[-2 -2  1  1  3 -1 -3],5187.285714285715,39.57142857142857,crit,-0.42857142857142855
6806,Korean dome,6806,10,[ 2  0  1 -3  1  3 -3  3 -1  1],4758.2,32.3,crit,0.4
7232,Korean ecosystem,7232,10,[ 2  3  3  3  1  2 -1  1  2  3],3341.7,26.1,crit,1.9
2949,Korean enclosure,2949,5,[-1  3 -3  3 -1],2738.8,30.6,crit,0.2
10958,Korean enthusiasm,10958,9,[-3  1  2  1  0  2  3  3  3],3337.4444444444443,33.77777777777778,crit,1.3333333333333333
14193,Korean flame,14193,7,[ 3  3  2 -3  1  1  1],4163.857142857143,30.285714285714285,crit,1.1428571428571428
6646,Korean fountain,6646,7,[2 3 0 2 2 3 1],3983.0,28.0,crit,1.8571428571428572
1899,Korean friendship,1899,11,[ 0  3  2  3  1 -3  3 -2  3 -3  3],3449.181818181818,29.0,crit,0.9090909090909091
12761,Korean gospel,12761,7,[ 2  3 -2  2  3  0  2],3056.5714285714284,36.142857142857146,crit,1.4285714285714286
10994,Korean grant,10994,6,[2 1 3 0 0 1],3098.6666666666665,27.833333333333332,crit,1.1666666666666667
10798,Korean ice,10798,7,[ 3 -2  0  3  1  3  2],3589.4285714285716,29.714285714285715,crit,1.4285714285714286
1217,Korean imaging,1217,6,[-1  2  1  3  2 -3],4140.833333333333,33.833333333333336,crit,0.6666666666666666
18402,Korean jungle,18402,6,[1 1 3 3 3 3],5470.833333333333,30.166666666666668,crit,2.3333333333333335
15489,Korean licence,15489,7,[ 2  3  0  2  2  3 -2],3457.5714285714284,38.42857142857143,crit,1.4285714285714286
7702,Korean paint,7702,8,[ 3 -3  3  3  3  3 -3  3],2520.25,29.625,crit,1.5
7862,Korean polymer,7862,3,[-1  0  3],4222.333333333333,24.666666666666668,crit,0.6666666666666666
2836,Korean reconstruction,2836,8,[ 3  3  3  2 -3  3 -3  3],3427.75,28.375,crit,1.375
15825,Korean rod,15825,7,[-2  2  1 -3 -1 -3  2],4028.8571428571427,30.428571428571427,crit,-0.5714285714285714
2868,Korean slice,2868,11,[ 1 -3  2  2  0  1 -3  1 -1  0 -3],4284.818181818182,36.09090909090909,crit,-0.2727272727272727
533,Korean spin,533,7,[ 0  0  3 -3 -3 -3 -2],3218.8571428571427,26.571428571428573,crit,-1.1428571428571428
9721,Korean surfing,9721,9,[ 0  3 -2 -1 -1 -2  2  0 -2],3699.0,27.11111111111111,crit,-0.3333333333333333
2792,Korean tooth,2792,10,[-2 -1  2 -3  2 -3 -3 -3 -3 -3],2768.9,34.3,crit,-1.7
8426,Korean trading,8426,11,[ 1  3  2  3  2  2  1 -1  3  3  2],3366.181818181818,33.09090909090909,crit,1.9090909090909092
12943,Latin affiliate,12943,14,[ 3  3  1  0  3  3  0  1  1  1  1 -3  2  2],4608.714285714285,32.142857142857146,crit,1.2857142857142858
11167,Latin attachment,11167,12,[ 3 -2 -1  3  0  3 -1 -1  0 -3  2 -3],5370.166666666667,34.583333333333336,crit,0.0
15355,Latin baby,15355,13,[ 3  1  1  3  2  3  1  3  3  3 -1  1 -2],3446.3076923076924,31.23076923076923,crit,1.6153846153846154
6587,Latin badge,6587,10,[ 1  2  1  0  2  3 -1  1  0 -3],3794.7,32.6,crit,0.6
13077,Latin boost,13077,7,[-1 -3 -3 -3 -3 -3 -2],3496.714285714286,34.0,crit,-2.5714285714285716
5948,Latin chemistry,5948,9,[ 3  1 -3  1 -1 -1  0 -1  0],5738.222222222223,28.88888888888889,crit,-0.1111111111111111
18024,Latin concentration,18024,6,[ 0  3 -3  2 -3  1],13876.333333333334,49.166666666666664,crit,0.0
10147,Latin conservatory,10147,9,[-2  3  3  3 -2 -3  2  2  3],6659.555555555556,29.555555555555557,crit,1.0
12893,Latin convenience,12893,14,[-1  1  0  1  2 -2 -2 -2 -3  1  3 -3 -2 -3],5226.428571428572,33.857142857142854,crit,-0.7142857142857143
10182,Latin examiner,10182,11,[ 3  2 -3  3  1  2 -3  3  0  3  0],6303.727272727273,28.0,crit,1.0
2421,Latin fatigue,2421,13,[-1 -1 -2 -3 -3  1 -3 -3 -1 -3  1 -2 -2],4553.076923076923,34.30769230769231,crit,-1.6923076923076923
15951,Latin firing,15951,10,[-3 -2 -2 -3 -1 -3 -2 -3  0 -3],4080.7,35.4,crit,-2.2
12305,Latin freezing,12305,11,[-3 -3 -2 -3 -3 -2 -3 -3 -3 -3 -3],3893.6363636363635,30.727272727272727,crit,-2.8181818181818183
7207,Latin funeral,7207,13,[-3  2  3  0  2  3  1  2  3 -2  3  2  2],3209.3846153846152,36.0,crit,1.3846153846153846
1584,Latin grape,1584,10,[-2 -2 -1  3 -3 -1 -3 -3 -2 -1],8550.6,28.8,crit,-1.5
13740,Latin harvest,13740,11,[-2 -2  1  3  2 -3 -2 -1  0  0  3],4682.818181818182,32.36363636363637,crit,-0.09090909090909091
2105,Latin hearing,2105,7,[-1 -3  0  1  0 -3  3],6416.571428571428,29.714285714285715,crit,-0.42857142857142855
11163,Latin ladder,11163,5,[-3 -1  3  0 -3],8337.4,33.8,crit,-0.8
7178,Latin likelihood,7178,12,[-3 -1 -3  0 -3 -3 -3 -3 -3 -2  2 -3],8749.0,36.25,crit,-2.0833333333333335
15792,Latin mess,15792,5,[ 3  1  0 -3  1],6342.2,28.6,crit,0.4
9015,Latin microphone,9015,18,[-3 -3  3 -3  1  0 -3 -1 -3 -3 -3  3  0 -2  3 -3  0  1],3515.222222222222,34.44444444444444,crit,-0.8888888888888888
3641,Latin plug,3641,11,[ 0 -2 -3  1 -3 -3 -3 -3 -2  1 -2],3795.818181818182,36.09090909090909,crit,-1.7272727272727273
12069,Latin principal,12069,8,[ 1  2  1  1  3  1 -2  1],4241.375,28.75,crit,1.0
6782,Latin rate,6782,11,[ 1 -3 -3 -3 -2 -2 -3 -1 -3 -2  0],3824.0,31.727272727272727,crit,-1.9090909090909092
8127,Latin riot,8127,7,[ 1  0  1 -3 -1 -2  1],4395.714285714285,33.857142857142854,crit,-0.42857142857142855
9982,Latin scandal,9982,18,[ 2  3 -3  0  2 -3  3  1  1  2 -3 -2  3 -3  1 -3  3 -3],3772.3888888888887,33.5,crit,0.05555555555555555
15985,Latin significance,15985,8,[-2  2  0 -3  2 -3  3  3],4174.875,32.0,crit,0.25
12614,Latin spray,12614,6,[-3 -3 -3 -1  1 -1],3340.8333333333335,26.333333333333332,crit,-1.6666666666666667
9675,Latin stripe,9675,4,[ 0 -1 -2 -3],2606.25,27.5,crit,-1.5
2837,Latin succession,2837,17,[ 2  3  1  3  1  3  3 -1 -2  3  2  1  1  0 -3  3  0],4902.529411764706,34.64705882352941,crit,1.1764705882352942
3138,Latin trial,3138,11,[-2  3 -3  2  3 -1 -1 -2  1 -1 -3],5720.545454545455,28.454545454545453,crit,-0.36363636363636365
15040,Latin wreck,15040,10,[-3  0 -3 -3 -3  1 -3  1 -3 -2],4593.3,38.9,crit,-1.8
17200,Latin youngster,17200,14,[ 3  2 -1  3  0  1  3  3  3  2  3  3  3  2],3034.9285714285716,34.5,crit,2.142857142857143
11695,Muslim Sunday,11695,7,[ 1 -3 -1  3 -3  2 -2],3455.1428571428573,24.0,crit,-0.42857142857142855
1430,Muslim allegation,1430,7,[-2 -3  0  3  1  0  2],4414.857142857143,28.571428571428573,crit,0.14285714285714285
5908,Muslim application,5908,13,[ 3 -2  2  1  3  1  1  0 -1 -3  1  1  3],4914.076923076923,31.384615384615383,crit,0.7692307692307693
5982,Muslim artillery,5982,17,[ 2  3 -3 -1  2 -2  3  2  3 -2  3  2 -2  3  1  2  0],4165.0,34.35294117647059,crit,0.9411764705882353
12114,Muslim ballet,12114,8,[ 3  0  1  2 -1  2 -3  3],3389.5,31.0,crit,0.875
19055,Muslim barrier,19055,6,[ 1  1 -1 -3  1  2],3821.3333333333335,42.833333333333336,crit,0.16666666666666666
10456,Muslim bishop,10456,6,[-3 -1  1 -3 -3  1],5234.333333333333,36.666666666666664,crit,-1.3333333333333333
10152,Muslim cargo,10152,11,[ 2  0  2 -2 -1 -1  1  1  3 -3 -2],3802.090909090909,29.272727272727273,crit,0.0
1902,Muslim carrier,1902,6,[ 3  3 -1 -3  0  0],4274.5,33.333333333333336,crit,0.3333333333333333
19139,Muslim choir,19139,10,[ 3  0  3  1 -2  3  2  2  3  3],5217.0,40.7,crit,1.8
8293,Muslim clone,8293,13,[-3 -3  3  1 -2 -1 -3 -2  1  0 -2 -3  2],4817.7692307692305,33.23076923076923,crit,-0.9230769230769231
14743,Muslim coast,14743,11,[ 1  1  2  2  1  3 -2  1 -3 -2  1],4497.454545454545,37.27272727272727,crit,0.45454545454545453
11451,Muslim competence,11451,18,[ 1 -3  3  2  3  2  3 -2  3  1  2  2  2 -2 -3  2 -2 -3],5247.222222222223,34.666666666666664,crit,0.6111111111111112
5964,Muslim coursework,5964,12,[-1  0 -3 -1  3  3  2  3  1 -3  2 -3],3718.1666666666665,33.666666666666664,crit,0.25
18131,Muslim courtyard,18131,11,[-3 -2 -1 -3 -2  2 -1 -2  3 -3 -2],7739.0,32.81818181818182,crit,-1.2727272727272727
10058,Muslim dark,10058,7,[-3  1 -3 -3 -3 -3 -3],5521.0,42.285714285714285,crit,-2.4285714285714284
5947,Muslim dial,5947,12,[-2 -3 -1 -3 -3  2 -3 -3 -2 -3 -3  1],5111.75,31.083333333333332,crit,-1.9166666666666667
8110,Muslim dividend,8110,12,[ 0 -3 -3  1 -1 -3  1  0  0  1 -3 -3],3604.1666666666665,28.0,crit,-1.0833333333333333
8658,Muslim dollar,8658,12,[-1 -3 -3 -1 -2 -2 -2 -3 -3 -3 -3  0],4305.5,32.833333333333336,crit,-2.1666666666666665
17984,Muslim earning,17984,5,[-3 -2  1  3 -1],3620.8,27.2,crit,-0.4
17395,Muslim erm,17395,9,[-1 -3 -3  1 -1 -3 -3 -1  0],8663.444444444445,32.111111111111114,crit,-1.5555555555555556
1950,Muslim error,1950,11,[-2  3  0 -3 -3  3 -2 -3 -3  3  0],2717.6363636363635,32.09090909090909,crit,-0.6363636363636364
16812,Muslim essay,16812,12,[ 2  1 -3 -1  2  3  1  2  2  3  3 -1],6083.75,35.916666666666664,crit,1.1666666666666667
19126,Muslim euro,19126,8,[-3  1 -3 -2  0 -3  0 -3],3425.125,28.25,crit,-1.625
391,Muslim fighting,391,11,[ 3  0  3 -3  3  2  0  3  3 -3  0],4007.2727272727275,26.636363636363637,crit,1.0
18170,Muslim finish,18170,10,[ 1 -3 -2 -3 -3 -3 -3  0 -3 -1],6887.0,32.1,crit,-2.0
3249,Muslim font,3249,7,[ 1  1 -3  3  1 -3  2],4116.857142857143,34.42857142857143,crit,0.2857142857142857
9769,Muslim fruit,9769,6,[-1 -3  3 -1 -2 -3],4411.166666666667,37.833333333333336,crit,-1.1666666666666667
6550,Muslim gaming,6550,10,[ 3  1 -2  1 -3 -3  1 -2  3  3],5455.9,29.1,crit,0.2
14337,Muslim gene,14337,17,[-3  3 -3  3 -2 -3 -2 -3  0 -3  2  2  3 -3  3 -3 -3],4672.882352941177,40.705882352941174,crit,-0.7058823529411765
8259,Muslim glance,8259,6,[-3 -2  2 -2 -2 -3],3915.0,30.166666666666668,crit,-1.6666666666666667
11895,Muslim location,11895,11,[ 1  3  2 -3  3  3  3 -2 -3  3  3],3807.2727272727275,31.363636363636363,crit,1.1818181818181819
6923,Muslim luxury,6923,10,[-1  1 -3 -1  3 -3 -3  3 -1  2],4167.3,31.3,crit,-0.3
11197,Muslim manipulation,11197,9,[-3  0 -1  1  0 -2  0  1  1],5898.0,34.55555555555556,crit,-0.3333333333333333
12193,Muslim nomination,12193,7,[-1  3  1  1  3  0  0],5361.285714285715,28.285714285714285,crit,1.0
9761,Muslim pine,9761,5,[-3 -3 -3 -3 -3],4160.4,36.8,crit,-3.0
14143,Muslim prosperity,14143,13,[-3  3 -1  3  2  0  3  2  1  2  2  2  3],10023.615384615385,31.384615384615383,crit,1.4615384615384615
18298,Muslim proximity,18298,13,[ 3 -3  0  0 -2  3  2  2  1 -2  2 -3  1],4930.846153846154,41.53846153846154,crit,0.3076923076923077
11272,Muslim questionnaire,11272,9,[-1  3  0  1 -1 -3  3  1  3],4566.666666666667,40.111111111111114,crit,0.6666666666666666
8151,Muslim refurbishment,8151,7,[ 0 -2 -1 -1  0 -3 -3],5395.714285714285,45.42857142857143,crit,-1.4285714285714286
2730,Muslim satellite,2730,10,[-3 -3 -2 -3  3 -3 -3  3  3  2],3631.9,33.6,crit,-0.6
13757,Muslim scrutiny,13757,13,[-2  3  1  3 -2 -1 -1  2  3 -3  1  2  2],3851.6923076923076,35.23076923076923,crit,0.6153846153846154
13709,Muslim showcase,13709,17,[ 1  2 -3 -1 -2 -3  1 -2  2  3  3 -3  3  0 -1  3 -2],3018.705882352941,29.529411764705884,crit,0.058823529411764705
17082,Muslim surveyor,17082,8,[ 2  0 -1  0  1  3 -3  3],4834.0,29.75,crit,0.625
1344,Muslim threshold,1344,10,[-3  2  3  3 -1 -1 -3 -1  2 -3],6457.8,29.7,crit,-0.2
13856,Muslim thriller,13856,12,[ 0  3 -3  0 -1 -1  2 -1  3  2  3 -1],5144.333333333333,41.0,crit,0.5
14636,Muslim timetable,14636,6,[ 2 -3 -3  2 -2 -1],4990.666666666667,32.0,crit,-0.8333333333333334
1798,Muslim toy,1798,9,[ 2  2  1  3 -3  1  1  2  0],12562.444444444445,32.55555555555556,crit,1.0
13458,Muslim wit,13458,9,[ 3 -2 -2  3  0 -1  2  3  3],3989.6666666666665,32.888888888888886,crit,1.0
11069,Muslim wool,11069,8,[-1  1  3 -3 -3  3 -1  1],4244.625,32.875,crit,0.0
15909,North advent,15909,17,[-2 -3 -1 -2  1 -3 -2  3  2 -3  3 -3  0 -1 -3 -3 -3],4922.882352941177,40.11764705882353,crit,-1.1764705882352942
725,North battlefield,725,18,[-1  3  3  3  2  2 -2  3  3  3  3 -3  3  1  2  3  2 -3],11042.333333333334,32.888888888888886,crit,1.5
767,North cache,767,6,[-3 -3 -1 -3 -3 -2],6461.0,35.166666666666664,crit,-2.5
963,North century,963,13,[-3 -3 -3 -3 -3 -3 -3  0 -3 -3 -1 -3 -3],6646.538461538462,38.84615384615385,crit,-2.6153846153846154
7810,North check,7810,13,[-3 -2 -3 -2  1 -3 -2  1 -3 -1  0 -2 -2],3040.076923076923,29.923076923076923,crit,-1.6153846153846154
17043,North consolidation,17043,8,[-1 -3  2  1 -2  2 -1  2],4559.125,42.25,crit,0.0
12798,North detention,12798,10,[-3  3  3 -3 -1 -2 -1  2  2  3],4798.1,44.6,crit,0.3
11585,North discovery,11585,10,[ 1 -1  1 -2  0  2 -2  3  2  0],6550.0,34.8,crit,0.4
1952,North dispute,1952,12,[-1  3 -2  0 -2  3 -3  3 -2  2 -2  2],4518.083333333333,28.416666666666668,crit,0.08333333333333333
5207,North essay,5207,10,[-3 -3 -3 -2 -3 -3  3 -3 -2 -3],3491.3,29.4,crit,-2.2
6925,North expectation,6925,5,[-2 -3 -3  3  1],3709.8,32.2,crit,-0.8
3204,North factor,3204,10,[ 1  1  3 -1 -3 -3 -2 -3 -3 -2],3935.9,34.8,crit,-1.2
6907,North fairy,6907,7,[-3 -1 -2  2 -1 -3 -2],2486.1428571428573,33.142857142857146,crit,-1.4285714285714286
16323,North formulation,16323,10,[-3 -3  1 -3 -3 -3 -3  0  1 -3],18620.3,38.1,crit,-1.9
2397,North gardening,2397,21,[-3 -3  0 -3 -2 -1  2 -3 -3 -3 -3 -1 -3 -3 -3 -3 -3  1  3  1  0],4152.476190476191,32.5,crit,-1.5714285714285714
4100,North guitar,4100,6,[-3 -3 -3 -3 -1  0],2739.8333333333335,29.166666666666668,crit,-2.1666666666666665
5003,North high,5003,12,[-3  3 -2 -3 -3 -1  0 -1  0 -3 -3 -2],3312.9166666666665,29.666666666666668,crit,-1.5
3347,North imprisonment,3347,12,[-3 -2  0 -3 -1 -3 -2 -2  3 -1 -2  1],5026.833333333333,30.75,crit,-1.25
17454,North instinct,17454,10,[ 3  1 -3  1 -3  2 -3 -2 -3 -3],3287.9,31.1,crit,-1.0
18684,North jaw,18684,9,[ 0 -3  0 -3 -2 -2 -1  0 -3],4429.555555555556,36.55555555555556,crit,-1.5555555555555556
13690,North licensing,13690,10,[-2  3 -2 -3 -2  0 -1 -3 -3 -3],4971.6,27.9,crit,-1.6
17046,North menu,17046,9,[-1 -3 -2 -2 -3  0 -2 -1 -3],9451.0,31.666666666666668,crit,-1.8888888888888888
10156,North oxygen,10156,6,[-3 -3 -3 -3  1 -3],3481.0,37.333333333333336,crit,-2.3333333333333335
7537,North plastic,7537,12,[-1  0 -3 -3 -3 -3 -2  0 -2 -3 -3  3],5462.916666666667,34.75,crit,-1.6666666666666667
15776,North priority,15776,12,[ 2 -1  0 -1  3 -3  1  2 -2 -1 -2  3],4244.166666666667,34.25,crit,0.08333333333333333
16057,North probability,16057,7,[ 0  0 -3  3 -3 -3 -1],4300.142857142857,36.0,crit,-1.0
17447,North prohibition,17447,13,[-3 -3 -2 -2 -1  0  3  2 -3 -1 -3  1 -3],3377.5384615384614,35.69230769230769,crit,-1.1538461538461537
19829,North recipient,19829,5,[ 2 -3  0 -1 -3],4461.2,30.4,crit,-1.0
11014,North response,11014,15,[-3 -3 -2 -3 -3 -3  2  1 -1 -3  2 -3 -1 -3 -3],4566.266666666666,32.8,crit,-1.7333333333333334
17090,North rifle,17090,5,[-2 -3 -1  0  0],9115.8,27.8,crit,-1.2
17306,North rite,17306,8,[ 2 -3  3 -2  0 -3 -2 -3],5862.0,36.75,crit,-1.0
9339,North rugby,9339,7,[-3 -3  0 -3  1  2 -3],4132.714285714285,46.42857142857143,crit,-1.2857142857142858
8671,North sensation,8671,9,[-1 -3  0  0  1 -3 -3 -3 -3],4860.0,43.22222222222222,crit,-1.6666666666666667
9611,North sex,9611,12,[-3 -1 -1  3 -3 -3 -1 -3 -3 -2 -3 -2],3900.9166666666665,34.416666666666664,crit,-1.8333333333333333
6697,North shark,6697,9,[-1  3  3  2 -3  2  3 -3  0],6590.222222222223,31.666666666666668,crit,0.6666666666666666
12558,North short,12558,5,[-1 -3 -2 -3 -3],3519.4,32.0,crit,-2.4
12405,North summary,12405,9,[-3 -1 -2 -3 -3 -3  2  3  0],3925.0,36.55555555555556,crit,-1.1111111111111112
9146,North tension,9146,7,[-3 -2  2 -3  2 -3 -3],3827.5714285714284,34.42857142857143,crit,-1.4285714285714286
19291,North testimony,19291,5,[ 1 -3 -2 -2 -2],4246.0,30.2,crit,-1.6
16281,North transfer,16281,7,[ 0  0  0  2  0  0 -3],6059.571428571428,43.714285714285715,crit,-0.14285714285714285
13449,North treaty,13449,7,[ 3  2 -3 -1 -1 -3  2],4433.0,32.142857142857146,crit,-0.14285714285714285
11137,North tribunal,11137,5,[ 1  0 -3 -2  3],2857.2,38.0,crit,-0.2
8373,North vocabulary,8373,12,[-1 -2  1 -2 -3 -3  2 -3 -2  0 -3 -2],4298.75,31.25,crit,-1.5
4537,North waste,4537,13,[-3 -2 -2 -1 -1  0  2  1 -1 -3 -2 -1 -3],3576.153846153846,31.923076923076923,crit,-1.2307692307692308
2172,Norwegian abbey,2172,11,[ 3  2  3  0  3  3 -3  3  3 -2  3],5006.090909090909,34.36363636363637,crit,1.6363636363636365
4252,Norwegian activation,4252,7,[-1 -3 -1  0  2 -3 -2],4198.285714285715,26.571428571428573,crit,-1.1428571428571428
2904,Norwegian addiction,2904,11,[-1  1 -3  3  0 -2 -2  3 -2 -1 -1],4041.7272727272725,30.90909090909091,crit,-0.45454545454545453
9543,Norwegian allegation,9543,12,[-3 -3 -2 -2 -2  0  2 -1  3 -1  1  0],10759.166666666666,33.75,crit,-0.6666666666666666
8645,Norwegian amenity,8645,15,[ 1 -3 -1  0  2 -3  2  2  0  1  3  0  2  3  3],7436.533333333334,33.53333333333333,crit,0.8
797,Norwegian anatomy,797,8,[ 0  1 -2 -3  1  3  3  1],8420.125,34.5,crit,0.5
11347,Norwegian ascent,11347,11,[ 1  3  0  3 -2  2  1 -2  3 -1  1],6274.363636363636,35.18181818181818,crit,0.8181818181818182
4568,Norwegian boiler,4568,17,[ 0  1  2 -3  0  1 -3  3  0  3  2  2  0  1 -3  0  1],3570.1176470588234,35.23529411764706,crit,0.4117647058823529
1771,Norwegian bubble,1771,9,[ 1 -2  1 -2 -1 -2 -1 -3 -2],4372.222222222223,29.444444444444443,crit,-1.2222222222222223
13498,Norwegian bull,13498,10,[ 2  3 -3  3 -2  3  1 -3 -3  0],8972.8,28.0,crit,0.1
8663,Norwegian computation,8663,8,[ 1  0 -3  3  3  1 -2  3],3187.25,24.375,crit,0.75
18947,Norwegian cue,18947,5,[ 1  1  0  2 -3],6121.8,38.0,crit,0.2
7637,Norwegian detail,7637,11,[ 3  3 -3  1  0  3 -3  3  2 -1  3],4112.0,27.363636363636363,crit,1.0
7182,Norwegian disorder,7182,15,[-3  2 -3 -3 -2  3  0  1 -1 -2  0  3  2 -1 -1],4836.866666666667,33.333333333333336,crit,-0.3333333333333333
7116,Norwegian disturbance,7116,8,[-3  1  2 -3  1  3  0  3],5778.625,38.125,crit,0.5
3358,Norwegian elimination,3358,17,[-3  1 -3 -3  2  2  0 -1  2 -2  2  0 -3  1 -2 -1  3],5107.941176470588,32.64705882352941,crit,-0.29411764705882354
9518,Norwegian epilepsy,9518,6,[-3 -3  0  3 -1 -1],14168.0,28.666666666666668,crit,-0.8333333333333334
6153,Norwegian equality,6153,5,[ 1 -3  3 -1  0],3175.6,27.8,crit,0.0
14786,Norwegian equilibrium,14786,14,[-3 -2  0 -1  0 -3  1 -3  3 -3  0  1 -2  0],5352.428571428572,37.714285714285715,crit,-0.8571428571428571
7045,Norwegian fairy,7045,14,[ 3  0  1 -1  2  0  3  3  3  3 -2  0 -3  3],4316.571428571428,33.5,crit,1.0714285714285714
11804,Norwegian feedback,11804,7,[-3  1  1 -3  1  3  1],2809.285714285714,32.5,crit,0.14285714285714285
8720,Norwegian garden,8720,7,[1 2 3 0 2 0 3],4236.857142857143,29.0,crit,1.5714285714285714
2453,Norwegian governance,2453,9,[ 1  2  1 -3  3  3  3  2  3],5018.888888888889,36.333333333333336,crit,1.6666666666666667
14169,Norwegian grip,14169,10,[-3  1  0 -2  0 -1 -2 -2 -3  3],2322.9,32.4,crit,-0.9
9949,Norwegian habitat,9949,13,[ 3  3  3  3  3  1  3  2 -2  3  3  3  3],3834.6153846153848,35.92307692307692,crit,2.3846153846153846
12882,Norwegian headline,12882,12,[ 3  3  1  0 -3  3  3  3  2  1  3  1],5774.0,31.083333333333332,crit,1.6666666666666667
15383,Norwegian honey,15383,9,[2 1 3 3 3 3 3 3 3],4748.444444444444,33.666666666666664,crit,2.6666666666666665
4987,Norwegian inequality,4987,7,[0 0 1 3 3 2 2],4047.4285714285716,36.57142857142857,crit,1.5714285714285714
2864,Norwegian leisure,2864,8,[ 1 -3  3  3  1  3  0  2],10153.375,29.375,crit,1.25
12543,Norwegian mall,12543,10,[ 3  3  3  3  3 -2  3  3  3  3],3469.3,35.2,crit,2.5
5169,Norwegian net,5169,11,[-3 -3  0  0 -3  3  3  3 -3 -3  2],8299.727272727272,38.0,crit,-0.36363636363636365
17926,Norwegian nut,17926,5,[ 3  2 -3  1  3],3749.6,26.4,crit,1.2
16402,Norwegian pillar,16402,8,[-3  2 -1  1  3 -3 -3  2],4077.375,30.25,crit,-0.25
13276,Norwegian presentation,13276,10,[-3  3  2 -2  1  2  3  2  3 -3],3753.7,38.8,crit,0.8
18248,Norwegian radar,18248,10,[-1  2  2  3  3  2  2  0  2  3],8952.9,40.9,crit,1.8
3861,Norwegian refund,3861,11,[ 1  1  3  3 -2 -2  2  2 -3  0  3],3609.0,32.72727272727273,crit,0.7272727272727273
15114,Norwegian reign,15114,6,[-2  1 -2  2  1  1],5536.166666666667,21.0,crit,0.16666666666666666
13288,Norwegian rent,13288,10,[ 1 -3  2  0  0  3  1  3  0  3],6183.7,29.5,crit,1.0
12484,Norwegian severity,12484,14,[-3 -1  2 -3  3  0 -3 -3 -2  0 -3 -1 -2 -2],7170.285714285715,32.357142857142854,crit,-1.2857142857142858
7550,Norwegian shield,7550,6,[-1  1  1  2 -1  3],2720.3333333333335,34.333333333333336,crit,0.8333333333333334
5008,Norwegian shock,5008,7,[-3  1 -2  1 -3 -3 -2],4406.714285714285,31.571428571428573,crit,-1.5714285714285714
11768,Norwegian standing,11768,14,[-2  1 -2  2 -3  1  1  3  3 -3  3  0  2 -2],4552.142857142857,34.5,crit,0.2857142857142857
5627,Norwegian surfing,5627,13,[ 3 -3  2  3  3  2  1 -3  3  3  2 -3  2],3860.846153846154,27.923076923076923,crit,1.1538461538461537
7223,Norwegian tank,7223,5,[ 3  1 -1  3 -1],2249.4,26.0,crit,1.0
4024,Norwegian vacuum,4024,13,[-2  0  0  1 -2 -3 -1 -3  3 -2 -2  3 -2],3316.4615384615386,39.07692307692308,crit,-0.7692307692307693
17299,Norwegian vinyl,17299,12,[ 3  3 -2  3  1  3 -1 -1  0  0  3  3],4450.75,31.166666666666668,crit,1.25
18554,Norwegian wake,18554,7,[ 3  1 -2 -1  1  0  2],4119.285714285715,35.142857142857146,crit,0.5714285714285714
11355,Polish ban,11355,7,[-3  2 -3  1  3 -3  3],3923.285714285714,31.0,crit,0.0
13670,Polish boiler,13670,9,[-3  3  3  3  3  3  0 -3  3],3668.0,39.44444444444444,crit,1.3333333333333333
13954,Polish chip,13954,7,[ 1  3  3 -1  3 -1 -2],4788.714285714285,42.0,crit,0.8571428571428571
10561,Polish decline,10561,6,[-3 -3 -3  3  0 -2],6809.333333333333,32.333333333333336,crit,-1.3333333333333333
19993,Polish discount,19993,4,[-1  1  0  3],3256.25,23.5,crit,0.75
11575,Polish distress,11575,16,[ 3  2  1 -3 -3 -2 -2 -3  1 -3  2 -2  1 -2 -2  0],4115.25,33.125,crit,-0.75
12738,Polish electronics,12738,11,[ 3  2  2  1  2 -3  2  1  3  2  1],3485.4545454545455,36.36363636363637,crit,1.4545454545454546
18685,Polish extent,18685,6,[ 0  1 -3 -3 -3 -2],3229.0,41.0,crit,-1.6666666666666667
10076,Polish gift,10076,8,[3 2 2 3 2 1 0 2],3401.375,26.625,crit,1.875
8553,Polish innovation,8553,10,[ 3  3  0  3  2 -2 -3  3  3  3],5824.8,38.4,crit,1.5
18415,Polish inspection,18415,13,[ 1 -1  3 -1 -1  0  0 -3 -1 -2  3  0  2],3995.076923076923,31.76923076923077,crit,0.0
13206,Polish matrix,13206,11,[-3 -3 -1 -1  1  2  2 -2 -3 -3 -3],3288.5454545454545,33.0,crit,-1.2727272727272727
11141,Polish mechanism,11141,13,[ 0 -2  0  0  2  2  1  1  0  2  3  2 -3],10324.0,30.615384615384617,crit,0.6153846153846154
9223,Polish networking,9223,7,[-3  3  3 -3 -2  2  2],3235.8571428571427,34.166666666666664,crit,0.2857142857142857
15998,Polish occurrence,15998,11,[ 1 -2 -2 -3  3  0  0 -3 -1  3  3],20472.454545454544,30.454545454545453,crit,-0.09090909090909091
177,Polish pagan,177,977,"[-3  0  3 -2  1 -3 -2 -3  2  3 -1  0  0 -3 -2  2  0  3  3  3  3  3  2  1
  3 -2 -3  2 -3 -3  3  3  3  3  3  3 -2  3  2  3  1 -3 -3 -1 -1  0  1 -3
 -1  3  1  0  1  3  2 -2  3 -3  3  0 -2 -3  2 -3  3  3 -2 -3  3  0 -1  3
 -3  1  3 -3  0  1  3 -1 -1  2  3  0  0  0 -3  3  2  3  0  2  2  0 -2  3
  3 -1  2  3  3  3  3  3 -3  3  2  3  3  3  3 -3  1 -3  1  2  3 -3  3 -3
  2  2  1  2  3  3  3  3  3 -3  2  3 -1 -2  3  3 -3  0  3  2 -3  2  3  0
 -1  3  1 -3  0 -2 -3  3  2 -3  1 -3  2  3  1  0  2  3  2  2  2  3  3 -1
  2  3 -3  0  0 -3  1  3  3 -2  2  3 -3  1  1  0  0  1  2  3 -2  3 -3 -1
  3  1  3 -2 -1  2  2  1 -2 -1  3 -3  1 -1  3  2 -3  3  2  1  2  1  1  1
  2  2  3  2 -2 -3  3  3 -1  3 -1  3  2  2  0  2  1 -2 -2  1  3  1  1  2
  2 -2  3 -2  1 -3  3  3 -3  3  2  3  1 -3  0  1 -2  3  1  2 -3 -3  2  0
 -2  1  2  2 -3  3  3  3  3 -3  3  1 -2  2  3 -3  1  2  2  3 -1  0  3 -1
  3 -1  3  3 -1 -2 -1  3  2  2 -2  3  3  0  2  1  3  3  2 -3  1  3  2 -3
  3  3  1 -3 -2  2  3  3  3  1  0 -3  3 -1 -3  1 -3 -3  1  3  3 -1  1  0
  2  3  2 -3  0 -1 -2 -2  2 -2 -2  0  3 -3  3 -3  3  0  3  0  3  0 -3  2
  3  3  1  3  3  3  3  2  3  3  2  3  3  1 -1  0  3  3  3  3  2  3  3  3
  3 -3  1 -3 -3 -2  2 -1  2  0 -1 -3  1  3  3 -1  2 -3 -2 -3  3  3 -3 -3
 -3  0  3  3  3  3  3 -3  3  3  1  1 -3 -3  3 -3 -1  2 -2  2 -1  3  3 -3
  0  1  1  3 -3  3  3  0  3 -3 -2  0  2  1  0  0 -1  1  0  1 -3  3  0 -1
  2  2  1 -2 -2 -2 -2  0  3  3 -2 -3  3 -3  0  0  2  3  3  1 -2 -3 -2 -1
  3  0 -1  2 -3 -2  1  3  2  1 -1 -2  3  3  3  2 -3  3 -2 -1  3 -2  3 -3
