,item,item_index,count,responses,rt,age,trial_type,rating
16273,African aftermath,16273,6,[-2 -2  3  1  1  2],2734.3333333333335,30.166666666666668,crit,0.5
14988,African bill,14988,6,[ 2  3 -1 -3 -3  2],5306.666666666667,35.833333333333336,crit,0.0
4192,African can,4192,6,[ 2 -1  3  1  2  0],4260.833333333333,26.5,crit,1.1666666666666667
17362,African catalog,17362,8,[ 3  3 -1 -1  3 -3 -1 -3],3491.375,32.375,crit,0.0
4587,African chance,4587,11,[-2 -3  3 -1 -2 -1 -2 -3 -2  1  0],4111.181818181818,29.636363636363637,crit,-1.0909090909090908
13062,African grief,13062,5,[2 2 1 0 2],7168.4,32.2,crit,1.4
9820,African handset,9820,9,[ 1  0  3 -3 -1 -3  3 -3 -3],3138.6666666666665,37.111111111111114,crit,-0.6666666666666666
2021,African inception,2021,9,[ 2 -3  1 -3  3 -2  1 -3  3],4961.0,42.666666666666664,crit,-0.1111111111111111
1134,African investigation,1134,7,[2 3 1 1 3 1 3],3857.285714285714,37.57142857142857,crit,2.0
11633,African luxury,11633,8,[ 2  3 -1  2  3  3  3  2],3817.625,33.375,crit,2.125
19236,African nomination,19236,3,[-3  1  0],3192.0,30.0,crit,-0.6666666666666666
15077,African nose,15077,7,[ 3  3  3  3  3 -3  3],2826.8571428571427,28.714285714285715,crit,2.142857142857143
9563,African novice,9563,6,[ 0  3 -3  3 -2  2],3817.8333333333335,33.0,crit,0.5
10800,African outset,10800,9,[-2 -3 -1  2 -2 -3  3 -3 -3],9013.666666666666,43.44444444444444,crit,-1.3333333333333333
15786,African pier,15786,3,[2 2 2],10927.666666666666,43.333333333333336,crit,2.0
14580,African pollution,14580,10,[ 3  3  3  1  2  1 -2  2  3  1],3494.1,34.0,crit,1.7
12014,African preparation,12014,7,[ 1 -3 -1  2  2 -3 -3],4662.285714285715,48.42857142857143,crit,-0.7142857142857143
11878,African shortage,11878,6,[-2 -3  0 -1 -3 -3],5919.166666666667,35.333333333333336,crit,-2.0
1851,African trunk,1851,6,[ 1  3 -2  2 -3  0],4391.0,32.666666666666664,crit,0.16666666666666666
18832,American beam,18832,7,[-2  2 -1 -1 -3 -2 -2],6048.142857142857,24.428571428571427,crit,-1.2857142857142858
19693,American bulk,19693,6,[ 1  2 -3 -2 -3  0],3405.0,31.166666666666668,crit,-0.8333333333333334
9581,American correlation,9581,6,[ 0 -3  1  2 -1 -3],12413.5,25.333333333333332,crit,-0.6666666666666666
8318,American crater,8318,9,[-3 -3  3  2  1 -2  1  2 -2],4607.777777777777,35.55555555555556,crit,-0.1111111111111111
7935,American dairy,7935,6,[ 0  3  2  3 -1  3],5610.0,25.666666666666668,crit,1.6666666666666667
17538,American hook,17538,6,[ 1 -1 -3  3 -3 -2],2371.0,25.5,crit,-0.8333333333333334
12698,American ice,12698,9,[ 2  3  3  0  0  0  1  2 -1],4550.111111111111,32.666666666666664,crit,1.1111111111111112
10279,American incidence,10279,6,[3 2 2 3 2 2],5623.666666666667,38.0,crit,2.3333333333333335
9691,American inflammation,9691,5,[-3 -2 -2 -3 -1],5144.0,40.4,crit,-2.2
18442,American ion,18442,9,[-3 -3 -3 -3 -2 -3 -3 -3 -3],4157.333333333333,30.77777777777778,crit,-2.888888888888889
15070,American oxide,15070,2,[ 0 -3],5255.5,33.5,crit,-1.5
1146,American protein,1146,11,[ 3  1  3  1 -2 -1 -1  2 -3 -3 -3],7307.0,31.181818181818183,crit,-0.2727272727272727
14323,American reef,14323,6,[ 2  1  1 -2  3  2],3943.6666666666665,30.166666666666668,crit,1.1666666666666667
14922,American ref,14922,1,[3],24961.0,54.0,crit,3.0
6926,American sleep,6926,11,[-3  1  1 -2 -2  2  0  0 -3 -2  3],5421.090909090909,28.727272727272727,crit,-0.45454545454545453
17350,American throat,17350,7,[ 3 -3  1 -3 -2 -3  0],3893.8571428571427,32.142857142857146,crit,-1.0
2627,American tiger,2627,10,[ 2  3 -2  0  2  3  3  3  3  3],2539.5,32.4,crit,2.0
19699,American wording,19699,5,[-1  2  3  3  0],4537.0,24.8,crit,1.4
19472,Arab ace,19472,5,[-3  0  1 -1  0],5381.8,25.6,crit,-0.6
15178,Arab ascent,15178,4,[ 3  0 -1  1],7408.0,31.0,crit,0.75
19085,Arab banner,19085,8,[ 3  1  3 -3  1  3  0  1],3336.5,30.375,crit,1.125
15179,Arab beauty,15179,15,[ 3  2  3 -1  2  3  3  3  3  1  3  3  3  3  3],4701.133333333333,27.733333333333334,crit,2.466666666666667
1104,Arab beer,1104,11,[2 3 0 3 3 1 3 3 3 1 0],8375.363636363636,30.363636363636363,crit,2.0
5273,Arab century,5273,7,[ 1  0 -3  1 -3  1  0],6446.142857142857,32.857142857142854,crit,-0.42857142857142855
6705,Arab clarification,6705,11,[-1  0  0  0  1 -3  3  1  0 -3  0],3457.0,27.636363636363637,crit,-0.18181818181818182
12989,Arab compliance,12989,7,[ 2  2 -1 -2  1  3  1],4807.0,28.857142857142858,crit,0.8571428571428571
17999,Arab councillor,17999,8,[-3  2  3  3  3  1  3  2],5002.5,32.875,crit,1.75
7435,Arab cream,7435,7,[-2  0 -3  3  2  0 -3],3215.5714285714284,30.285714285714285,crit,-0.42857142857142855
3574,Arab danger,3574,8,[ 3  3  3 -1  2 -3 -1  1],3508.5,47.5,crit,0.875
15079,Arab deficiency,15079,7,[-3 -3  2  3  3 -2  1],5867.571428571428,38.142857142857146,crit,0.14285714285714285
12733,Arab dissolution,12733,8,[-2  0  1 -3  0 -3 -3 -1],8464.25,30.375,crit,-1.375
11136,Arab gem,11136,8,[ 2  1  3  1 -3  1  3  1],3790.375,41.125,crit,1.125
8099,Arab hierarchy,8099,6,[1 2 2 3 3 3],3635.1666666666665,30.166666666666668,crit,2.3333333333333335
11235,Arab induction,11235,6,[-3  1  2 -3 -3 -1],3045.8333333333335,41.166666666666664,crit,-1.1666666666666667
6896,Arab jazz,6896,10,[ 1  1  1 -2  0  2 -2  3  3 -1],3665.8,31.7,crit,0.6
6188,Arab leisure,6188,3,[-2 -3 -2],6247.666666666667,21.333333333333332,crit,-2.3333333333333335
9424,Arab lifetime,9424,10,[-2  0  3  2  3  3  3 -3  3  2],3052.7,35.3,crit,1.4
8575,Arab monitoring,8575,11,[ 0 -2 -3  0  1  0  3 -3 -2 -3 -1],5654.818181818182,29.727272727272727,crit,-0.9090909090909091
18772,Arab motorway,18772,3,[-2  1  1],7871.666666666667,22.0,crit,0.0
19514,Arab planner,19514,6,[ 0 -1  2 -2 -1  3],2949.6666666666665,33.666666666666664,crit,0.16666666666666666
17586,Arab procession,17586,9,[ 0 -1 -3 -3  1  2  3  3  3],5145.444444444444,33.333333333333336,crit,0.5555555555555556
8760,Arab reunion,8760,5,[1 3 2 3 3],4013.0,31.8,crit,2.4
7905,Arab row,7905,8,[-3 -3 -3  1 -3 -2  1 -3],2802.0,28.25,crit,-1.875
7827,Arab sanctuary,7827,6,[2 2 0 3 3 1],3564.0,38.166666666666664,crit,1.8333333333333333
2103,Arab sink,2103,9,[-1 -3  1  3  2 -1 -1  2  1],4014.8888888888887,27.333333333333332,crit,0.3333333333333333
15873,Arab spreadsheet,15873,7,[-3 -2  3  0 -2 -3 -1],3827.1428571428573,34.285714285714285,crit,-1.1428571428571428
15634,Arab theology,15634,9,[ 2  3 -3  3  2  3  3  3  2],3530.4444444444443,38.55555555555556,crit,2.0
10887,Arab thread,10887,4,[-3  2 -3 -3],3317.0,42.0,crit,-1.75
880,Arab towel,880,11,[-3  0  0  3  1  3  1  3  3  2  1],4431.0,30.181818181818183,crit,1.2727272727272727
11150,Arab vampire,11150,11,[-3  2  3  1  2  2  2  1  2 -3 -3],3595.909090909091,40.27272727272727,crit,0.5454545454545454
7345,Arab variable,7345,8,[-2 -2 -3 -1 -2 -2  1 -2],5674.75,30.625,crit,-1.625
13040,Arab variation,13040,7,[ 1 -2  2 -3  0 -1 -3],3815.0,29.571428571428573,crit,-0.8571428571428571
15574,Arab vocalist,15574,8,[-3  3  3  3  2  2  3  2],2796.75,31.25,crit,1.875
15063,Arab voltage,15063,6,[-2 -1 -3 -3 -2 -3],3353.8333333333335,38.5,crit,-2.3333333333333335
12763,Asian assistance,12763,11,[ 3  1  3  0  2  1  1  1  2 -2  0],4490.818181818182,39.27272727272727,crit,1.0909090909090908
19748,Asian batch,19748,4,[ 3  1 -1  3],9835.5,32.5,crit,1.5
3802,Asian bowel,3802,5,[ 3 -3  0 -2 -2],3480.0,25.8,crit,-0.8
10635,Asian chip,10635,7,[ 1  3 -3  2  3  3  0],7742.428571428572,37.714285714285715,crit,1.2857142857142858
16024,Asian cloth,16024,6,[-1  2  3 -3  3  3],5162.833333333333,32.333333333333336,crit,1.1666666666666667
1384,Asian consequence,1384,9,[-3 -3 -3  1 -3 -3  1 -3 -3],3615.777777777778,30.666666666666668,crit,-2.111111111111111
16157,Asian cottage,16157,9,[-3  2  2  2  2  3  3  1  0],3551.4444444444443,35.22222222222222,crit,1.3333333333333333
4832,Asian dentist,4832,8,[3 3 1 3 1 3 2 3],2925.125,41.25,crit,2.375
3868,Asian dissertation,3868,8,[-1  0 -2 -2  3  3  0 -3],6837.625,31.0,crit,-0.25
13824,Asian ease,13824,5,[-3 -3 -3 -3 -3],2724.8,29.8,crit,-3.0
11620,Asian editorial,11620,9,[ 3 -1  1  2 -1 -1  0  2  1],15811.111111111111,33.75,crit,0.6666666666666666
5966,Asian founding,5966,7,[ 1  3 -3  2 -3  2 -2],3680.714285714286,34.142857142857146,crit,0.0
17067,Asian fraction,17067,7,[ 2 -1  0 -2 -3  3  0],3541.8571428571427,33.42857142857143,crit,-0.14285714285714285
15237,Asian illusion,15237,8,[-3 -2  2  2  1  0  2 -3],3719.75,30.5,crit,-0.125
5505,Asian income,5505,5,[-3  3 -3  0  1],4473.6,30.0,crit,-0.4
3884,Asian lifetime,3884,8,[ 3  0  0 -3  1  3  0  2],2394.5,23.875,crit,0.75
17822,Asian liquid,17822,5,[ 3 -1 -3 -2 -2],5113.2,45.0,crit,-1.0
1604,Asian manga,1604,14,[3 1 2 3 3 3 3 3 3 3 3 3 3 3],3443.785714285714,28.571428571428573,crit,2.7857142857142856
9487,Asian militia,9487,6,[2 3 3 3 3 3],2860.8333333333335,32.166666666666664,crit,2.8333333333333335
5112,Asian north,5112,10,[ 0 -3  3 -3 -3  0  0 -1  3  0],5665.5,30.0,crit,-0.4
7406,Asian obstacle,7406,7,[-1 -2 -2  3  2  0 -3],5187.571428571428,33.57142857142857,crit,-0.42857142857142855
5054,Asian oven,5054,8,[-3  2  3 -3  3 -3  2  1],3561.5,27.0,crit,0.25
19307,Asian relaxation,19307,6,[ 0 -3  2  2  1  0],3142.6666666666665,28.5,crit,0.3333333333333333
10526,Asian sleeve,10526,10,[-3 -1  3 -3 -2 -1  1  0 -3  2],5746.1,34.7,crit,-0.7
2745,Asian tower,2745,5,[ 3 -1  3  3  3],4295.4,34.2,crit,2.2
13656,Asian void,13656,8,[-3  0 -3  2 -3  1  1 -3],2832.125,28.375,crit,-1.0
17207,Asian wagon,17207,6,[ 1  2 -3 -3  2  0],5823.833333333333,40.0,crit,-0.16666666666666666
9553,Asian worship,9553,8,[-2  0  0  3  3 -3  2  3],8637.875,29.875,crit,0.75
17057,Australian Viking,17057,7,[-3  2  1 -3 -2 -3 -2],4286.714285714285,36.142857142857146,crit,-1.4285714285714286
9337,Australian burning,9337,5,[-2 -3  0  1 -1],4717.8,30.8,crit,-1.0
5822,Australian continuity,5822,5,[ 0  1 -2  1  3],5519.8,39.6,crit,0.6
17992,Australian discrimination,17992,5,[ 1  1 -3  3  2],3174.4,29.0,crit,0.8
14443,Australian fate,14443,4,[1 1 0 0],4757.5,29.5,crit,0.5
19985,Australian ice,19985,2,[3 3],10474.0,32.0,crit,3.0
5199,Australian inheritance,5199,11,[-1 -3  3 -3  1 -1  1  1  2 -2  0],5289.909090909091,35.36363636363637,crit,-0.18181818181818182
3248,Australian key,3248,6,[ 2  0  3  1 -2 -1],3987.3333333333335,26.166666666666668,crit,0.5
8807,Australian nail,8807,9,[ 3  0  0  1  0  3 -3 -2  1],5890.444444444444,34.333333333333336,crit,0.3333333333333333
15529,Australian onset,15529,12,[ 0 -1 -2 -3 -3 -2 -3 -3 -3 -1 -2  3],5073.25,29.333333333333332,crit,-1.6666666666666667
5321,Australian precision,5321,2,[ 1 -2],3302.5,30.5,crit,-0.5
19558,Australian procurement,19558,5,[-2  2  3  0  1],5493.2,27.6,crit,0.8
519,Australian protein,519,16,[-2  1 -2 -1  1 -2 -2  2 -3  3 -3  1 -1  0 -3  3],3828.25,32.75,crit,-0.5
19244,Australian repayment,19244,13,[ 3 -2 -3  0 -3 -1  3 -3 -3 -3  1  1  2],6157.0,37.0,crit,-0.6153846153846154
3226,Australian ribbon,3226,10,[ 1  3  1 -3  0  3  3 -1  3  2],4921.6,28.6,crit,1.2
19590,Australian rubber,19590,5,[ 3 -3  3  1  2],3118.4,41.4,crit,1.2
1033,Australian sharing,1033,4,[ 2 -2 -2 -1],3523.25,24.0,crit,-0.75
17263,Australian speaking,17263,6,[ 3  3  3  2 -3  3],3794.8333333333335,39.0,crit,1.8333333333333333
18602,Australian tea,18602,7,[ 3 -2  3  3  3  3  3],3092.4285714285716,30.0,crit,2.2857142857142856
15702,Australian thumb,15702,8,[-3  1  1  2 -1 -3 -3 -3],3853.375,28.375,crit,-1.125
19675,Australian towel,19675,4,[1 0 3 3],3521.25,27.0,crit,1.75
14419,Australian vacuum,14419,7,[ 2  3  2  1 -3 -2  3],3357.8571428571427,35.714285714285715,crit,0.8571428571428571
3507,Australian waterfall,3507,6,[3 2 3 3 3 3],3271.6666666666665,28.333333333333332,crit,2.8333333333333335
14366,Australian wind,14366,6,[3 2 2 3 2 3],3035.5,44.5,crit,2.5
1479,British DIY,1479,3,[-1  3  1],3603.6666666666665,44.0,crit,1.0
12816,British coursework,12816,5,[3 2 3 3 3],15666.2,31.8,crit,2.8
12399,British dust,12399,9,[-2  3  2  1  3  3 -2  2  1],3199.4444444444443,34.666666666666664,crit,1.2222222222222223
18416,British extinction,18416,6,[ 0 -1  3  3  2  2],3869.3333333333335,32.666666666666664,crit,1.5
11442,British harvest,11442,6,[3 2 3 3 0 3],3423.5,34.333333333333336,crit,2.3333333333333335
17691,British heading,17691,4,[3 0 1 0],2994.5,40.25,crit,1.0
11564,British passing,11564,3,[ 3 -3  0],5001.0,30.333333333333332,crit,0.0
1447,British premium,1447,10,[ 1  1 -3 -2 -2  0  0 -2 -1  3],4061.8,31.9,crit,-0.5
393,British url,393,7,[ 2  2 -3  3  3  3 -3],3193.0,32.42857142857143,crit,1.0
784,British wrist,784,12,[-2 -2  1 -3 -1 -1  1  1 -1 -2 -1 -3],4190.75,36.833333333333336,crit,-1.0833333333333333
19061,Canadian acronym,19061,6,[ 2  3  3 -2  1  2],6904.166666666667,27.5,crit,1.5
9483,Canadian appliance,9483,12,[ 0  3  3  2  3  3  3  3  3 -3  2  3],6526.75,35.916666666666664,crit,2.0833333333333335
589,Canadian cluster,589,10,[ 1  3  1  1  3  3  0  1 -2 -2],3938.9,33.9,crit,0.9
8342,Canadian creativity,8342,9,[ 1  1  3  1  0  3 -2  3  3],3140.1111111111113,28.0,crit,1.4444444444444444
8968,Canadian deficiency,8968,12,[ 2 -1 -3 -3  0  1 -2  0  3 -2 -3  2],3980.75,29.5,crit,-0.5
10908,Canadian dismissal,10908,6,[ 1  1 -2 -3  0 -3],6650.666666666667,35.833333333333336,crit,-1.0
13837,Canadian dock,13837,9,[ 3  0  1  2  3  1  2  1 -1],6386.222222222223,26.77777777777778,crit,1.3333333333333333
17452,Canadian feast,17452,8,[2 3 2 3 3 2 2 3],5017.125,34.75,crit,2.5
12696,Canadian lion,12696,8,[ 3  3  3 -2 -3  3 -3  2],4258.625,28.125,crit,0.75
11289,Canadian node,11289,6,[ 0 -1 -2  0  0  1],3326.5,26.166666666666668,crit,-0.3333333333333333
10505,Canadian notebook,10505,5,[3 1 1 1 1],4150.2,28.6,crit,1.4
1510,Canadian nutrient,1510,11,[ 1  2  0 -2  2  0 -1 -2 -2 -1  3],7377.818181818182,31.454545454545453,crit,0.0
16960,Canadian passing,16960,8,[-1 -3  3 -1  0  2  3  2],7432.5,35.125,crit,0.625
16235,Canadian reconciliation,16235,6,[ 2  1  1 -3  1  1],6572.833333333333,28.0,crit,0.5
11372,Canadian remedy,11372,5,[ 3  3 -3  0  0],3366.2,33.2,crit,0.6
6938,Canadian rod,6938,8,[-2 -3  2 -2  3  0  2  1],4008.25,31.0,crit,0.125
16920,Canadian screw,16920,6,[ 1  3 -1  3 -1 -2],5113.5,29.0,crit,0.5
14718,Canadian sufferer,14718,5,[-2  1 -2  2  3],4348.4,30.6,crit,0.4
10927,Canadian summary,10927,10,[-3 -2  2 -2  0  2 -2  3 -2  3],3264.4,35.7,crit,-0.1
18850,Canadian taxi,18850,9,[2 3 3 3 3 3 3 1 3],3058.0,31.555555555555557,crit,2.6666666666666665
18961,Canadian text-decoration,18961,3,[-2  0 -3],4583.333333333333,27.0,crit,-1.6666666666666667
6973,Canadian tobacco,6973,11,[3 0 3 3 3 2 3 3 3 3 3],4158.454545454545,29.363636363636363,crit,2.6363636363636362
4961,Canadian trouble,4961,6,[-3  3  3  3  0 -3],4335.333333333333,36.666666666666664,crit,0.5
6481,Canadian turn,6481,8,[-3  0 -3 -2 -3  1 -2 -3],4146.125,32.5,crit,-1.875
4111,Canadian warrant,4111,9,[-2  1  0  2  0  2  2 -2  3],7550.333333333333,29.444444444444443,crit,0.6666666666666666
9131,Canadian whale,9131,6,[ 1  3  3  3  2 -2],14248.5,31.333333333333332,crit,1.6666666666666667
5319,Canadian worship,5319,9,[ 3  2  2  1  2 -3 -3  3  2],4144.333333333333,28.0,crit,1.0
11330,Catholic angel,11330,8,[ 0  3  2  0  3  1  3 -2],8381.375,30.875,crit,1.25
12622,Catholic anyone,12622,7,[-1  2 -1  1  3 -3  2],5037.0,30.0,crit,0.42857142857142855
4296,Catholic arm,4296,6,[-3 -2 -3  1 -2  0],3398.8333333333335,38.166666666666664,crit,-1.5
3606,Catholic bean,3606,5,[-3 -3 -3  0 -1],3794.6,34.0,crit,-2.0
16398,Catholic blow,16398,5,[-3 -3 -1 -2  2],4958.8,33.4,crit,-1.4
2438,Catholic brigade,2438,9,[ 2  3  1  2 -2  0  3 -1 -3],6344.777777777777,32.0,crit,0.5555555555555556
2965,Catholic classic,2965,7,[ 2  2  3 -1 -3 -2 -3],4321.714285714285,31.857142857142858,crit,-0.2857142857142857
275,Catholic dancing,275,6,[ 3 -1  2 -2 -3  2],3332.5,27.0,crit,0.16666666666666666
6444,Catholic emails,6444,6,[ 2  3 -1  0 -1  3],3769.3333333333335,39.166666666666664,crit,1.0
2729,Catholic emotion,2729,12,[ 2  1 -2 -3  3 -3  3  0 -1  1  1 -3],2722.8333333333335,25.333333333333332,crit,-0.08333333333333333
10546,Catholic excellence,10546,6,[-2  2  3  3  3 -3],3847.8333333333335,27.5,crit,1.0
10827,Catholic exploration,10827,9,[ 3 -2 -3  2  2  3  1  1 -3],3710.6666666666665,38.55555555555556,crit,0.4444444444444444
18795,Catholic finale,18795,5,[-3 -3  2 -3 -1],3512.8,34.0,crit,-1.6
13218,Catholic fridge,13218,4,[-3 -2 -3 -3],2654.75,27.25,crit,-2.75
8852,Catholic gun,8852,4,[-3  1 -3 -1],4926.5,34.5,crit,-1.5
1527,Catholic illustration,1527,9,[-3  0  2  2  2  3  3  2  3],2981.4444444444443,33.111111111111114,crit,1.5555555555555556
3569,Catholic injustice,3569,3,[3 2 2],4315.333333333333,28.666666666666668,crit,2.3333333333333335
4539,Catholic knife,4539,5,[-3 -3 -1 -3 -1],3626.6,29.0,crit,-2.2
19768,Catholic leg,19768,5,[-3 -3 -1 -3 -2],3484.6,32.4,crit,-2.4
9137,Catholic liver,9137,6,[-3  0 -3  3 -3  3],3605.0,38.166666666666664,crit,-0.5
17742,Catholic making,17742,10,[ 1 -2 -3 -2 -1  1  0 -3 -3  0],4997.8,32.3,crit,-1.2
18632,Catholic misuse,18632,4,[-3  1  1  0],5794.5,32.75,crit,-0.25
8358,Catholic repair,8358,10,[ 0 -3 -1 -3  1 -3 -2 -2 -3 -1],5637.1,30.9,crit,-1.7
7356,Catholic revenue,7356,9,[ 0  1 -3  2  2  3  1  3  0],6336.777777777777,38.333333333333336,crit,1.0
18758,Catholic routine,18758,4,[3 0 3 2],4114.75,35.0,crit,2.0
4789,Catholic runner,4789,4,[ 1 -2  3 -1],3799.0,42.75,crit,0.25
5269,Catholic skill,5269,15,[ 2  0 -3 -3 -1 -2  1 -2  1 -3  2  0 -2  0  0],4048.866666666667,34.2,crit,-0.6666666666666666
1092,Catholic tape,1092,7,[-2 -2  0 -3  0 -1  1],3147.1428571428573,32.857142857142854,crit,-1.0
5817,Catholic toilet,5817,13,[-1  0 -3 -2  1 -3 -1  2 -1 -1 -3 -2  2],5526.076923076923,29.76923076923077,crit,-0.9230769230769231
12641,Catholic trout,12641,11,[-3 -3 -3 -1 -1 -2 -2 -3 -3 -3 -3],5645.545454545455,29.545454545454547,crit,-2.4545454545454546
4334,Catholic truck,4334,10,[-3 -3 -1 -3 -1  0  2 -2 -3 -3],7370.5,26.8,crit,-1.7
8574,Catholic well-being,8574,5,[ 0 -3 -2  2  3],4170.0,26.0,crit,0.0
4624,Chinese absorption,4624,8,[-2  0  2 -3  2 -2 -3 -1],6732.0,31.375,crit,-0.875
11614,Chinese accessibility,11614,6,[ 1  3  3 -3 -3 -1],3142.0,31.5,crit,0.0
17347,Chinese alteration,17347,5,[-3 -2 -1  2  1],9094.0,30.0,crit,-0.6
14,Chinese broadband,14,7,[ 3  2 -3  3  1  3  3],4492.857142857143,36.142857142857146,crit,1.7142857142857142
2609,Chinese darkness,2609,7,[-1 -1  1 -3 -2  0  1],4484.571428571428,41.42857142857143,crit,-0.7142857142857143
5829,Chinese dissertation,5829,7,[ 3  0 -2  0  2  3  3],5912.142857142857,35.57142857142857,crit,1.2857142857142858
19976,Chinese eligibility,19976,2,[1 3],3502.0,35.5,crit,2.0
263,Chinese emergence,263,7,[ 3  2  0 -3  2  2  2],4468.0,36.42857142857143,crit,1.1428571428571428
17231,Chinese herd,17231,7,[-3 -3 -3 -3  1  2  3],4817.428571428572,34.285714285714285,crit,-0.8571428571428571
8578,Chinese maximum,8578,4,[-1 -3  3 -3],3956.25,34.75,crit,-1.0
19979,Chinese outreach,19979,5,[-1  1 -1  3 -3],7990.0,28.8,crit,-0.2
2201,Chinese plasma,2201,8,[-1 -1  1 -1  3 -2  1 -3],3594.875,30.375,crit,-0.375
17442,Chinese restoration,17442,8,[ 2  1  3  2  2  2 -3  2],5400.625,26.25,crit,1.375
2580,Chinese separation,2580,9,[-2 -3 -3 -3  0  1  1  3 -2],3238.6666666666665,33.55555555555556,crit,-0.8888888888888888
12608,Chinese subsection,12608,6,[ 2 -3 -2 -3  3  2],4072.8333333333335,33.666666666666664,crit,-0.16666666666666666
18191,Chinese vowel,18191,9,[3 3 3 3 2 3 2 3 2],3353.222222222222,27.555555555555557,crit,2.6666666666666665
13523,Christian airline,13523,7,[ 1 -1  3  2 -1  1  0],3286.8571428571427,33.285714285714285,crit,0.7142857142857143
13538,Christian arc,13538,12,[ 2 -1 -2  0 -3 -3 -3  2 -3 -1 -1  2],10512.833333333334,33.083333333333336,crit,-0.9166666666666666
8523,Christian arcade,8523,6,[ 2  3  0  1 -3  0],4136.833333333333,33.5,crit,0.5
6585,Christian basement,6585,5,[ 1  3 -2 -1  3],16070.8,29.8,crit,0.8
165,Christian cable,165,10,[-3 -3  2 -3 -3 -2 -1  1 -2  3],3213.9,35.7,crit,-1.1
10594,Christian container,10594,7,[-3 -3  2 -1 -2 -3 -2],5139.142857142857,25.285714285714285,crit,-1.7142857142857142
7444,Christian disability,7444,9,[-3 -1 -3 -1  1 -3 -3 -3 -2],4776.0,27.77777777777778,crit,-2.0
4502,Christian drug,4502,4,[-3 -2  0 -2],2569.25,40.75,crit,-1.75
13902,Christian expertise,13902,4,[ 2  3  3 -3],3149.0,32.5,crit,1.25
7371,Christian fighting,7371,10,[ 1  3  3  0  2  2 -3 -2  1 -3],5517.0,30.4,crit,0.4
12184,Christian gravel,12184,9,[-3 -3 -3  0 -3 -1 -1 -3 -3],6083.444444444444,28.666666666666668,crit,-2.2222222222222223
11816,Christian illusion,11816,5,[-2 -1  3 -3  1],3757.8,30.0,crit,-0.4
13259,Christian keywords,13259,11,[ 1  2  1  1  3  3  0 -2  3  1 -3],4945.545454545455,31.454545454545453,crit,0.9090909090909091
9080,Christian limestone,9080,9,[-3  3 -3 -3 -3 -2 -2 -1 -3],5001.0,36.875,crit,-1.8888888888888888
15889,Christian mile,15889,3,[-2 -3 -3],4152.333333333333,24.333333333333332,crit,-2.6666666666666665
19738,Christian removal,19738,5,[ 3 -3 -3  3 -3],2734.8,23.8,crit,-0.6
16933,Christian rifle,16933,4,[-3 -3 -2 -3],3539.75,21.25,crit,-2.75
16611,Christian rivalry,16611,3,[-1  2  3],2032.0,36.666666666666664,crit,1.3333333333333333
11547,Christian sand,11547,4,[-3 -3 -1 -2],4356.25,31.0,crit,-2.25
3499,Christian shirt,3499,8,[2 3 2 0 2 0 3 0],3208.0,28.5,crit,1.5
14773,Christian sibling,14773,9,[ 3  3 -1 -3  3  3  2  2  3],3177.777777777778,31.555555555555557,crit,1.6666666666666667
9688,Christian switch,9688,6,[-3 -3 -3 -2 -3 -3],4498.833333333333,35.0,crit,-2.8333333333333335
1188,Christian tier,1188,11,[-3 -2  2  1  2  1 -3  0 -3 -2 -3],3767.090909090909,36.36363636363637,crit,-0.9090909090909091
2749,Christian void,2749,12,[-1  2 -1 -1 -3 -2 -3 -2 -3  2  2 -2],3623.3333333333335,27.333333333333332,crit,-1.0
16563,Christian waste,16563,7,[-3 -1  1 -3 -3 -3 -1],19878.14285714286,30.857142857142858,crit,-1.8571428571428572
18701,Christian weed,18701,7,[-3 -3 -2 -1  3  0 -3],6357.285714285715,25.428571428571427,crit,-1.2857142857142858
10599,Conservative ability,10599,4,[ 1 -2  3  3],4000.0,51.25,crit,1.25
63,Conservative arc,63,762,"[ 3  3 -1  3  0 -2 -3  3 -3  0  1  1  3  3 -3 -2 -3  1  0 -3  2 -3 -3 -3
 -1  3  0  2 -2 -2  3 -2  2 -3 -2  1 -2  1  1  1  0 -2  0  1  0 -3  0 -3
  2  1  1  1 -2 -3  0 -2 -2  0  1 -1  1 -3 -1  1  3 -3 -1 -3  0 -3  1 -1
 -3 -2 -3  2 -2  3 -3  3  1  3 -1  1  3  3  2  2 -3 -3  0  2  2 -2 -3 -3
  1  2  0  0  3 -2  1 -3  2  1 -2 -2 -3 -3  3 -2 -1 -3  0 -2  0 -2  1 -1
 -2 -3  3  2 -3 -3  1 -2 -3  2 -2  3 -2  1 -3  3 -3  0  3  0  2  2 -2 -3
  3  2  1 -3  3 -3 -3  0 -2  3  0  2 -1  2  2  3  1 -3 -3  2  0  3 -3  2
 -1 -3  3 -2  0 -2 -2 -3  1 -1  0  1  2  2 -1  2 -3 -2 -2 -2  3 -2 -2  2
 -1 -3  0 -1 -2 -2 -3  1  1 -3 -3  0 -1  2 -3  0  1 -1 -3  2 -2 -2 -3  2
  0  3 -3 -1  3 -2  3  2 -1  3 -1  2  3 -2 -3 -3 -3  1 -3  1  0  3 -1  2
 -1 -1  1 -3 -3 -3  0 -1  1 -1  3  1 -2  2  1  3 -2 -3  0 -1  0  3  3 -3
 -1  1 -1 -2 -2  3  2 -3 -3 -3 -3 -3 -3 -1 -3  3  1  3  3 -3  1  0  3  3
  1  2  3 -1  0  2  0 -2 -2  2  3 -3  3  3  1 -1 -1 -3  1 -3  2  3  1  3
 -1 -2  0 -2 -3  2  0 -2 -1 -2 -2  3 -2 -3  0  1  0  3  0  2 -3 -1 -3  2
 -1 -1  2 -1 -3  1  1 -1  3  3  3  1 -3  0 -3  2 -3  1 -3 -1  1  2 -2 -1
 -3  3  2 -3 -3  1  3  0 -3 -1 -3 -1  1  3  0  0 -3 -1 -3 -1  1 -2  3  3
  1 -2  0 -2  1  3  3 -2  1 -3 -2  0 -1  0  2  2  1  2  1 -1  0  2  2 -3
 -3  1 -1 -3  1  1 -2  1  2  1  0 -3 -1 -1  1 -3 -1  1 -3 -3  2 -3  1 -3
 -2 -2  0  0  0  1 -3 -1 -2 -2  0  0 -2 -2 -1 -2  2  1  1  3  2  1 -3 -3
  3  2  1  1  2 -2  1  2  0  3  3  0  3 -2  2  1  0  1  1  2  3  2  0  0
  1 -2 -3 -3 -2  0  3  1  3 -1  3  3  0 -2 -3  0  3  3 -3  2 -3  1  3 -2
  1 -3  1  0  3  0  0 -2  3 -1  2 -3 -3 -2  0  2  1  1  0  0  2  2 -1 -2
 -2 -1 -3 -3 -2 -2  0 -3  1 -3  1 -3  2  1 -2  1 -2  3  1 -3 -3 -1  3 -3
  2  3 -2  1  1 -1  2 -3  2  2  1 -1  1  2 -2  3  0 -3  1  2  2 -2  2  0
 -2 -1 -2  2 -3 -3  1  0  2  0  3  0 -1 -3  0 -3 -2  0 -2  3  2 -1  0 -2
  3  1 -1 -3  3  0  2 -3 -3 -3 -3  3  2 -3  1  3 -2 -3  1 -2  0 -1 -1  3
  1  2 -2 -1 -3 -3 -3 -2 -3  1  3 -2 -3 -2  2 -1  1 -3  2  1  2  1 -1  0
 -3 -1  2 -3  2  0  0  1 -2  3  1  1 -2 -1 -1  3 -1 -3 -3  3  2 -2  2  3
  2  3 -3  0  2  1  2  0 -1 -1 -2 -2 -1 -3 -3  1  0  1 -2  2  3  1 -1  0
  1 -2 -3  1  1  1  1  2  2  1 -3 -3 -2  1  0 -2  3  0 -1 -1  0 -3  0  2
 -3 -1  0 -3 -3  0 -1 -2  1  2 -3 -3 -3  0  0  2  2 -1  0  3  0  1  3 -2
 -2  2 -3  2 -2 -2  0 -3 -3  3  0  1 -2  3 -1 -3  0 -2]",5410.248031496063,32.337713534822605,anti,-0.2099737532808399
11169,Conservative beam,11169,6,[-3 -2 -2 -3 -3 -3],3261.3333333333335,28.166666666666668,crit,-2.6666666666666665
14492,Conservative beauty,14492,9,[ 1  2  2  3  2  2  2  2 -2],6216.666666666667,29.11111111111111,crit,1.5555555555555556
16361,Conservative cargo,16361,9,[-2  2 -2 -3 -2  0 -2 -3 -3],4647.555555555556,30.88888888888889,crit,-1.6666666666666667
16903,Conservative cart,16903,6,[-2  3 -3 -3 -1 -3],3231.1666666666665,28.666666666666668,crit,-1.5
4860,Conservative cat,4860,9,[ 0  1 -2 -3 -3 -2 -3 -3 -1],5041.777777777777,40.666666666666664,crit,-1.7777777777777777
6577,Conservative charity,6577,6,[-1  3  2  3  0  2],5885.5,30.166666666666668,crit,1.5
17209,Conservative computer,17209,7,[ 1 -3 -3  3 -3 -3 -2],3137.8571428571427,27.714285714285715,crit,-1.4285714285714286
10171,Conservative concentration,10171,7,[ 1  0  2  1 -3  0  1],7372.142857142857,30.0,crit,0.2857142857142857
2262,Conservative contamination,2262,5,[-3 -2 -3 -3 -3],3222.2,33.8,crit,-2.8
19184,Conservative dependence,19184,9,[-1  0 -3  2  2  2  2 -3 -3],5271.888888888889,31.22222222222222,crit,-0.2222222222222222
12488,Conservative equation,12488,5,[ 2  0 -2  2 -3],3968.6,32.8,crit,-0.2
732,Conservative fax,732,10,[-2  2 -1 -3 -1  0 -2 -3  2 -1],5061.7,29.2,crit,-0.9
5488,Conservative foreigner,5488,7,[ 3 -3  2  3  3  3  2],5061.285714285715,33.857142857142854,crit,1.8571428571428572
14213,Conservative knight,14213,7,[ 2  3 -3  0  0  1 -1],4222.428571428572,36.57142857142857,crit,0.2857142857142857
18582,Conservative medal,18582,5,[-1 -2  1  1  2],6355.8,33.8,crit,0.2
4483,Conservative microscope,4483,8,[-1 -3 -2 -2 -3 -3 -1 -3],3444.75,37.125,crit,-2.25
12579,Conservative organism,12579,6,[-3 -2  1 -2  2  3],4737.0,34.666666666666664,crit,-0.16666666666666666
14618,Conservative outbreak,14618,8,[ 1  2  1  3 -3 -3  3  2],4357.125,31.875,crit,0.75
3787,Conservative outline,3787,11,[ 3 -1  3 -1 -2  0  3 -2  2  3 -2],4415.545454545455,32.0,crit,0.5454545454545454
18357,Conservative paperback,18357,5,[-3 -3 -3 -3 -3],9931.8,23.4,crit,-3.0
15515,Conservative parasite,15515,8,[-3  0  1  3 -3 -1  1  2],5099.0,33.5,crit,0.0
19804,Conservative permit,19804,10,[-3 -3  2 -2 -3 -1 -2 -3 -2 -3],2911.5,32.0,crit,-2.0
14394,Conservative prison,14394,6,[ 1  1 -1  1  2 -1],4869.5,39.333333333333336,crit,0.5
17776,Conservative procurement,17776,6,[-3 -2  2 -3  0  2],4286.166666666667,33.166666666666664,crit,-0.6666666666666666
15845,Conservative quarry,15845,4,[-3  1  0 -3],5502.0,26.75,crit,-1.25
18511,Conservative quotation,18511,7,[ 2  2  1  2 -2  3  3],8028.0,38.57142857142857,crit,1.5714285714285714
19876,Conservative robot,19876,3,[-3  3 -3],3524.3333333333335,52.0,crit,-1.0
11488,Conservative sailing,11488,8,[-3  0 -1  1 -1 -3  3 -3],7119.25,34.125,crit,-0.875
3962,Conservative sponsorship,3962,11,[ 3 -2  1  2  3 -2  2  1  2  3  1],4366.181818181818,29.09090909090909,crit,1.2727272727272727
4720,Conservative strip,4720,6,[-1 -3  0 -3 -1 -3],6654.666666666667,33.166666666666664,crit,-1.8333333333333333
18962,Conservative summary,18962,5,[1 2 3 1 2],5668.6,26.6,crit,1.8
6300,Conservative sustainability,6300,10,[ 0  0  3  1  0 -1  1  3  0  1],9460.7,38.8,crit,0.8
2621,Conservative syndrome,2621,11,[-2  2 -3 -3 -2 -3  1  3 -2  3 -1],3694.090909090909,30.363636363636363,crit,-0.6363636363636364
18318,Conservative uprising,18318,7,[0 2 3 3 3 3 1],4283.285714285715,28.285714285714285,crit,2.142857142857143
434,Conservative veteran,434,9,[2 2 3 1 3 3 0 3 3],8613.666666666666,30.444444444444443,crit,2.2222222222222223
4857,Conservative wealth,4857,12,[ 0  0  2  3  1  3  1  3  0 -2  1  2],5163.75,37.666666666666664,crit,1.1666666666666667
6428,Conservative well,6428,5,[-3  0 -3 -2 -3],7528.2,35.4,crit,-2.2
7250,Danish acid,7250,7,[ 1  3 -1 -1 -2 -3 -2],4130.285714285715,29.571428571428573,crit,-0.7142857142857143
7265,Danish ankle,7265,14,[-1  2 -3 -2  0 -3 -3 -2 -2 -2 -3 -2 -3 -2],4098.642857142857,33.785714285714285,crit,-1.8571428571428572
17627,Danish attraction,17627,8,[0 3 3 3 1 2 3 3],3193.25,39.375,crit,2.25
19481,Danish boiler,19481,7,[-1  2  0  3  1  3  2],2772.1428571428573,28.0,crit,1.4285714285714286
19467,Danish bow,19467,7,[ 3  3 -3  1  3  1 -2],8388.857142857143,44.0,crit,0.8571428571428571
15548,Danish calculator,15548,8,[-3  2  3 -2 -3  3  2  2],4681.375,31.25,crit,0.5
6370,Danish chord,6370,14,[-1  0 -3  3 -2 -2  1  1  2 -3  2 -3 -2 -1],4574.857142857143,38.42857142857143,crit,-0.5714285714285714
19615,Danish climb,19615,3,[-3 -3 -3],3120.0,34.0,crit,-3.0
11066,Danish controller,11066,10,[-2  0  1  3  0  2  3 -1  0  0],3617.2,32.9,crit,0.6
5289,Danish costume,5289,10,[3 3 3 3 3 3 2 2 3 3],3123.4,38.7,crit,2.8
15125,Danish dealing,15125,12,[ 1 -3  2 -3 -2  2 -2  3 -2  1  1  1],5041.75,29.75,crit,-0.08333333333333333
1359,Danish dignity,1359,12,[-2  0  3 -2  1  1 -3  3  1  3  3 -2],3998.9166666666665,29.5,crit,0.5
16467,Danish epilepsy,16467,3,[-3  0 -1],4383.666666666667,22.333333333333332,crit,-1.3333333333333333
18245,Danish filing,18245,2,[-2  3],2895.0,42.5,crit,0.5
10835,Danish fin,10835,7,[ 3 -2  0 -3  3 -3  2],5019.285714285715,33.285714285714285,crit,0.0
14528,Danish heading,14528,6,[-1 -3 -3  3 -2 -2],3624.0,27.5,crit,-1.3333333333333333
14147,Danish highlight,14147,6,[-3 -1  2  3 -2  0],3798.0,42.833333333333336,crit,-0.16666666666666666
5905,Danish implementation,5905,6,[3 1 1 0 3 1],7350.5,29.166666666666668,crit,1.5
12652,Danish insulin,12652,2,[3 3],4519.0,24.0,crit,3.0
6192,Danish jacket,6192,16,[ 1  0  1  3  2  3  2  0  3 -1  3  1  3  3 -2  3],4072.3125,31.625,crit,1.5625
4479,Danish journey,4479,8,[ 2  1  2  3 -3 -1  1  1],2870.25,28.0,crit,0.75
4072,Danish monster,4072,12,[ 0  3  1  2 -3 -3  3  2  3 -3 -2 -1],4084.5833333333335,30.166666666666668,crit,0.16666666666666666
1764,Danish morality,1764,8,[ 3  0  3  3  3  3 -1  2],7023.0,35.125,crit,2.0
19948,Danish picnic,19948,3,[2 1 3],3980.3333333333335,46.666666666666664,crit,2.0
3181,Danish playoff,3181,5,[2 0 1 0 0],3812.2,26.8,crit,0.6
1126,Danish positioning,1126,8,[-3  0 -3 -2  3  1  2  1],3864.25,39.625,crit,-0.125
3303,Danish projection,3303,8,[-1  0  0 -1 -3  2  2  2],5363.875,37.125,crit,0.125
5113,Danish rain,5113,12,[-3  3  1  2 -2 -3 -2  1  0 -1  3  1],7051.666666666667,29.166666666666668,crit,0.0
2794,Danish ride,2794,8,[ 1 -3 -2  3 -1  2  2  2],4195.125,32.75,crit,0.5
5732,Danish rise,5732,5,[-3  3 -2  0  0],5555.8,35.0,crit,-0.4
5781,Danish sediment,5781,7,[-3  1  2 -3  0 -3  3],8364.857142857143,35.0,crit,-0.42857142857142855
13068,Danish shoot,13068,3,[-2  2  1],7212.333333333333,36.333333333333336,crit,0.3333333333333333
19624,Danish spite,19624,3,[ 0 -3 -2],25786.0,32.666666666666664,crit,-1.6666666666666667
17858,Danish suitability,17858,5,[-1  0  3  2  1],4631.2,31.0,crit,1.0
7643,Danish technician,7643,10,[ 3  3  0  3  2  2  3 -3  3  3],3154.9,35.1,crit,1.9
19428,Danish terrorism,19428,4,[ 2  3 -1  2],4770.25,28.5,crit,1.5
3286,Danish timing,3286,9,[-1  0  1 -3  3 -3  1 -3 -2],3707.8888888888887,29.666666666666668,crit,-0.7777777777777778
19739,Danish transmission,19739,2,[ 2 -3],3799.5,40.5,crit,-0.5
1542,Danish uncertainty,1542,8,[-3 -3 -1 -2  1 -3 -2 -1],4705.625,27.25,crit,-1.75
2234,Democratic advent,2234,7,[ 3 -2  0  1  1 -2 -3],4456.285714285715,37.142857142857146,crit,-0.2857142857142857
5338,Democratic bottom,5338,6,[ 1 -3 -3 -3 -3 -2],3213.1666666666665,28.333333333333332,crit,-2.1666666666666665
11817,Democratic canopy,11817,15,[-2 -3 -3 -3  0 -3  3 -3  2  1 -3 -3 -3 -3 -1],4191.866666666667,29.866666666666667,crit,-1.6
7723,Democratic chicken,7723,3,[ 0 -3 -3],6039.333333333333,32.333333333333336,crit,-2.0
6063,Democratic correspondence,6063,11,[ 3  1  3  1  0 -1  1  3  1  2  1],3437.181818181818,28.181818181818183,crit,1.3636363636363635
580,Democratic course,580,8,[ 3  2  1  3  2 -3  3  1],6036.375,32.875,crit,1.5
3172,Democratic dragon,3172,5,[-1 -3 -2 -1 -3],4684.6,31.0,crit,-2.0
3777,Democratic economy,3777,6,[0 3 2 2 3 2],4796.0,29.5,crit,2.0
5502,Democratic heaven,5502,16,[ 0  2 -3  3  2  2  3  3  1  0  2 -2  3  0  2  0],3614.8125,32.875,crit,1.125
14681,Democratic hole,14681,5,[ 1 -3 -3  0  1],3059.8,26.4,crit,-0.8
8966,Democratic inning,8966,8,[-2  2 -3 -2 -2 -2 -3 -2],5988.625,32.75,crit,-1.75
19476,Democratic lake,19476,3,[-3 -3 -3],2570.0,25.0,crit,-3.0
15449,Democratic lamp,15449,6,[-3 -3 -3 -2 -3 -3],3273.3333333333335,35.333333333333336,crit,-2.8333333333333335
15806,Democratic litter,15806,5,[-2 -1  1 -2 -1],6555.4,24.8,crit,-1.0
11642,Democratic load,11642,7,[ 1 -3  3  3  1 -3  2],5731.0,36.285714285714285,crit,0.5714285714285714
8856,Democratic material,8856,6,[ 0  3 -3 -2  2  2],4283.0,31.666666666666668,crit,0.3333333333333333
836,Democratic method,836,14,[ 2 -3  3  3  3  1  3  3  2  3  3  3  3  3],3699.214285714286,34.42857142857143,crit,2.2857142857142856
17712,Democratic nerve,17712,6,[ 2 -3 -2 -3 -2  1],3341.5,29.0,crit,-1.1666666666666667
2880,Democratic numeracy,2880,9,[-2 -3 -1 -2 -2 -2 -3  2 -3],5333.222222222223,39.44444444444444,crit,-1.7777777777777777
12828,Democratic obesity,12828,9,[-2 -3 -3 -1 -3 -1  3 -3 -3],6033.888888888889,39.77777777777778,crit,-1.7777777777777777
16888,Democratic poker,16888,5,[-1 -3 -1  0 -3],4684.4,34.0,crit,-1.6
17577,Democratic postgraduate,17577,3,[-2  3 -1],4528.666666666667,24.0,crit,0.0
2806,Democratic precaution,2806,11,[ 3  3 -1  0 -2  1 -1  2 -3 -2  1],4637.363636363636,33.36363636363637,crit,0.09090909090909091
2886,Democratic presentation,2886,11,[1 3 3 3 0 1 3 3 2 1 3],4157.181818181818,32.90909090909091,crit,2.090909090909091
18524,Democratic province,18524,7,[ 1  0  2  3 -3 -1  3],3245.285714285714,33.57142857142857,crit,0.7142857142857143
3013,Democratic quantity,3013,4,[-2 -2 -3  0],2980.0,34.25,crit,-1.75
14384,Democratic receptor,14384,10,[ 2 -3  1 -1 -3 -3  2 -1 -2 -1],5979.1,36.0,crit,-0.9
1341,Democratic rifle,1341,13,[-3 -3 -2 -3 -3 -1 -3  0  1 -3 -2 -3  0],5635.461538461538,35.46153846153846,crit,-1.9230769230769231
2280,Democratic sediment,2280,9,[-3 -3 -3 -3  0  3 -3 -3  0],3760.777777777778,25.444444444444443,crit,-1.6666666666666667
2722,Democratic sentiment,2722,10,[ 3  2 -1  3  3  2 -3  2  2  3],3631.5,29.7,crit,1.6
889,Democratic soap,889,13,[-3 -3 -3 -3 -3 -3 -3 -1 -3  0 -2 -3 -3],3186.4615384615386,31.692307692307693,crit,-2.5384615384615383
1794,Democratic strand,1794,9,[-3 -3  2 -3  1 -2  1  2 -1],10948.777777777777,30.333333333333332,crit,-0.6666666666666666
11580,Democratic sudoku,11580,10,[ 0 -2 -3 -3 -3 -3 -3 -3 -3  0],3733.3,38.4,crit,-2.3
14404,Democratic terrace,14404,4,[ 0 -3 -3 -3],3875.25,40.5,crit,-2.25
2471,Democratic textbook,2471,4,[-3 -2  2  3],4685.75,26.5,crit,0.0
8209,Democratic wake,8209,9,[ 1 -1  2 -2  1 -2  0 -3  0],4149.444444444444,36.333333333333336,crit,-0.4444444444444444
9135,Democratic warrant,9135,9,[-3 -2  2  3  3  0 -2  1  2],15505.333333333334,28.11111111111111,crit,0.4444444444444444
2321,Democratic warrior,2321,9,[3 1 2 2 3 2 1 2 3],4094.777777777778,30.666666666666668,crit,2.111111111111111
9971,Dutch atom,9971,11,[-2 -1  1 -2 -2 -3 -3 -3 -2 -3 -1],4282.363636363636,33.90909090909091,crit,-1.9090909090909092
2656,Dutch behalf,2656,6,[-3 -2 -3  1  0 -3],4893.666666666667,28.833333333333332,crit,-1.6666666666666667
17547,Dutch bill,17547,10,[ 2 -1 -3  3 -1  3  0  1 -2 -2],3537.4,31.1,crit,0.0
16031,Dutch buffer,16031,3,[-3 -2  3],3268.3333333333335,35.666666666666664,crit,-0.6666666666666666
14488,Dutch crater,14488,4,[ 3  0 -3  3],14051.5,30.75,crit,0.75
7167,Dutch drainage,7167,12,[ 3  3 -3  1  3 -1  1 -1 -3 -3 -1  2],6807.75,32.416666666666664,crit,0.08333333333333333
435,Dutch employability,435,9,[ 3  3 -3  3  0 -2  1  3  3],5900.222222222223,26.11111111111111,crit,1.2222222222222223
10299,Dutch extra,10299,7,[ 1 -2 -3 -3 -1 -2 -1],4973.428571428572,33.857142857142854,crit,-1.5714285714285714
17664,Dutch foam,17664,3,[ 1  2 -3],4097.666666666667,53.333333333333336,crit,0.0
12501,Dutch grass,12501,4,[0 1 3 0],2350.0,32.0,crit,1.0
4315,Dutch habitat,4315,9,[ 0  3  1  2  3 -2  3  1  3],3872.4444444444443,31.666666666666668,crit,1.5555555555555556
5587,Dutch packet,5587,8,[ 3  3  0 -3  3 -1  1  2],5477.625,25.875,crit,1.0
5766,Dutch push,5766,11,[-2 -1  0  1 -3 -3 -3  1 -3 -1 -3],4129.636363636364,31.545454545454547,crit,-1.5454545454545454
2075,Dutch radiator,2075,6,[ 0 -3  2 -3  3  2],7555.166666666667,44.0,crit,0.16666666666666666
10052,Dutch rape,10052,6,[ 2 -1 -1 -1 -3 -3],5597.833333333333,29.0,crit,-1.1666666666666667
20022,Dutch recorder,20022,3,[1 1 3],4877.333333333333,45.0,crit,1.6666666666666667
2711,Dutch reservation,2711,11,[ 2  2 -3  2  2  3  1 -3  2  2 -3],7034.090909090909,37.63636363636363,crit,0.6363636363636364
9968,Dutch scripture,9968,10,[ 1 -1  0  3  3  0  2  0  1  1],5623.4,35.1,crit,1.0
18942,Dutch software,18942,6,[3 0 0 2 2 3],3630.8333333333335,35.833333333333336,crit,1.6666666666666667
6036,Dutch temptation,6036,8,[-1 -3  0 -3 -3  3  0  1],4768.375,28.5,crit,-0.75
12149,Dutch throat,12149,8,[ 0  1  2 -1 -3 -3 -3 -3],4931.625,35.0,crit,-1.25
3399,English accessibility,3399,11,[ 2  3 -1 -2  2  3  2  1  3  2 -2],3443.818181818182,30.0,crit,1.1818181818181819
1682,English cleaning,1682,6,[ 2  0  1 -3 -3 -3],3141.1666666666665,34.666666666666664,crit,-1.0
7562,English communion,7562,4,[ 3  2 -3  2],4290.25,32.0,crit,1.0
2832,English medication,2832,6,[2 3 0 3 1 3],3375.5,28.333333333333332,crit,2.0
11181,English merit,11181,10,[ 2 -3  0 -1  1  0  1 -3  1  1],3409.2,27.9,crit,-0.1
3082,English negligence,3082,10,[ 2  0 -3  2  2  3  1  1  0  0],5281.0,30.7,crit,0.8
11307,English popularity,11307,9,[0 2 2 3 2 2 3 1 3],2842.4444444444443,30.88888888888889,crit,2.0
9707,English reconciliation,9707,8,[-2  0 -2 -1 -1 -2 -1 -1],13868.875,32.25,crit,-1.25
2203,English strap,2203,10,[-3 -2 -1 -2  3  0 -1 -3 -3 -3],4182.3,30.2,crit,-1.5
11375,European arc,11375,7,[-1 -1  0 -3 -3 -2  2],5165.571428571428,30.285714285714285,crit,-1.1428571428571428
10464,European bin,10464,8,[-1  3 -3  3 -3  3  0  3],3315.375,33.25,crit,0.625
10987,European bowl,10987,6,[ 1  0  3  3  2 -1],3924.1666666666665,29.5,crit,1.3333333333333333
16872,European breadth,16872,7,[ 1 -3 -3 -2 -1 -1 -1],4731.714285714285,36.57142857142857,crit,-1.4285714285714286
27,European bush,27,7,[ 1  1  1 -1 -3  3  1],2921.8571428571427,26.285714285714285,crit,0.42857142857142855
15071,European diabetes,15071,6,[-2  1  3 -3  2 -3],7612.5,38.0,crit,-0.3333333333333333
1985,European dignity,1985,7,[-3  1  1  3  3  1  2],19312.0,31.142857142857142,crit,1.1428571428571428
1012,European dollar,1012,6,[-2  3 -3 -1  2 -3],9091.5,25.0,crit,-0.6666666666666666
2961,European minute,2961,6,[-1 -1 -3  2 -3  2],3202.0,28.333333333333332,crit,-0.6666666666666666
19150,European radar,19150,4,[3 2 3 3],4693.75,30.75,crit,2.75
10719,European redundancy,10719,8,[ 2  1 -1  3  2  0  1 -1],5965.75,32.75,crit,0.875
19425,European staircase,19425,3,[2 1 0],4423.666666666667,22.0,crit,1.0
19485,European trunk,19485,2,[ 3 -3],1878.0,25.5,crit,0.0
9602,French canopy,9602,8,[ 0 -1  3 -3  3 -2 -3  3],4207.25,31.0,crit,0.0
5736,French competence,5736,7,[ 3 -3  3  2  3 -2  3],3598.714285714286,32.857142857142854,crit,1.2857142857142858
2366,French dioxide,2366,6,[-2 -3 -1 -3 -3 -3],3905.0,35.166666666666664,crit,-2.5
16983,French disappointment,16983,6,[ 1 -2 -2 -2  2  3],3719.8333333333335,26.833333333333332,crit,0.0
11263,French disclosure,11263,5,[ 1 -3  3  3 -3],6696.8,36.8,crit,0.2
8159,French forefront,8159,8,[ 0  0 -3  3  0  3 -3 -1],7210.5,31.375,crit,-0.125
6913,French fur,6913,9,[ 2  3  1  2  3  2  2 -2  2],3719.5555555555557,33.44444444444444,crit,1.6666666666666667
2827,French guardian,2827,12,[ 3  3  1  3  3  3  3  3  3  2 -1  1],3299.8333333333335,31.25,crit,2.25
14277,French litre,14277,5,[-3 -3  0 -2  0],3987.4,35.8,crit,-1.6
3859,French minimum,3859,8,[ 3 -1  2 -2 -3 -3 -2 -3],4126.5,43.625,crit,-1.125
8899,French nitrogen,8899,6,[ 0 -3 -3  1 -2 -1],3826.0,37.0,crit,-1.3333333333333333
4506,French stomach,4506,5,[-2 -2 -3  2  0],3154.6,27.6,crit,-1.0
1646,French substitution,1646,10,[ 1  0 -2 -3 -2  1  3  1  1  2],3670.6,28.8,crit,0.2
1436,French wait,1436,8,[-3 -3 -3 -1 -3 -3 -1 -3],2462.125,27.75,crit,-2.5
9316,German assignment,9316,3,[2 3 2],6326.333333333333,30.333333333333332,crit,2.3333333333333335
4032,German browser,4032,9,[ 3  2  3  3  1  0  3  1 -2],6684.0,29.77777777777778,crit,1.5555555555555556
4284,German consulting,4284,9,[0 3 1 3 0 3 2 3 3],3550.8888888888887,29.333333333333332,crit,2.0
13320,German decrease,13320,10,[-1  1  2  0 -3 -2 -2 -3  2  0],4160.0,43.3,crit,-0.6
5149,German disability,5149,11,[-3  3 -2 -3 -3 -2 -3 -3 -3 -3 -3],4719.272727272727,36.18181818181818,crit,-2.272727272727273
10910,German hook,10910,6,[ 0  0  3 -1 -3  0],4595.5,28.0,crit,-0.16666666666666666
13363,German impulse,13363,4,[-3  1  0 -2],14202.25,29.25,crit,-1.0
19379,German indicator,19379,4,[ 3 -1 -1  3],3715.25,25.5,crit,1.0
17590,German journey,17590,9,[-1  3  0  3  2  1  1  3  1],4370.444444444444,24.88888888888889,crit,1.4444444444444444
6193,German lock,6193,9,[-1 -3  0  2  0  3  3  3  0],5114.555555555556,30.11111111111111,crit,0.7777777777777778
6044,German luxury,6044,11,[ 1  3  3  3  3  2  3 -1  1  3  1],2989.818181818182,27.545454545454547,crit,2.0
14665,German modem,14665,9,[ 2  3  2  0  1 -3 -1  3  3],9606.666666666666,31.0,crit,1.1111111111111112
10836,German negligence,10836,9,[ 3 -1  1  2  1  3  1  3  3],4716.222222222223,35.44444444444444,crit,1.7777777777777777
3522,German queue,3522,6,[ 3  2 -1 -1 -1  1],4706.5,34.166666666666664,crit,0.5
5507,German suspension,5507,8,[ 3 -3  3  1  3  3 -3 -1],3926.0,29.0,crit,0.75
3750,German tear,3750,10,[ 1  3 -1 -3  1 -3  1  3  1  3],3524.1,29.5,crit,0.6
7137,German terminal,7137,4,[ 3  1  3 -3],3874.5,39.25,crit,1.0
18496,German urine,18496,4,[-3  2  2 -1],3869.75,43.0,crit,0.0
4277,Greek badge,4277,10,[ 1  0  0  2 -1 -3  2 -1  3  3],4209.3,29.8,crit,0.6
8192,Greek bag,8192,8,[ 3  3 -1  3  2 -1  2  3],2764.25,34.625,crit,1.75
16214,Greek baptism,16214,10,[ 2  2  1  3  3  1  3 -3  1  3],4819.4,32.3,crit,1.6
3359,Greek basement,3359,7,[ 2  0 -3  3 -3  2  0],6494.714285714285,34.42857142857143,crit,0.14285714285714285
14793,Greek blanket,14793,7,[ 3 -2  3  2  2  3 -3],3874.4285714285716,34.57142857142857,crit,1.1428571428571428
1438,Greek capture,1438,6,[-2 -3 -1  2  0 -2],5159.666666666667,33.666666666666664,crit,-1.0
10442,Greek clause,10442,9,[-3  3 -3 -2  3  0 -2 -2 -2],4057.3333333333335,38.44444444444444,crit,-0.8888888888888888
14608,Greek configuration,14608,7,[ 2  2 -1  3 -1  2  3],3177.4285714285716,22.857142857142858,crit,1.4285714285714286
18528,Greek crap,18528,7,[ 2 -2  1  3  3  1  2],4457.857142857143,37.57142857142857,crit,1.4285714285714286
4290,Greek dock,4290,10,[ 1  0  1  2  0  2 -3  3  1 -3],19371.5,38.3,crit,0.4
18165,Greek encouragement,18165,5,[-2 -3  2  3 -2],3350.2,30.2,crit,-0.4
11162,Greek greenhouse,11162,10,[-2  3  3  0 -3  1 -1  1  2  2],4470.1,35.8,crit,0.6
14847,Greek hill,14847,6,[-3  3  2  0  3 -1],4334.833333333333,31.333333333333332,crit,0.6666666666666666
14326,Greek hydrogen,14326,8,[-2 -2  3  2  1 -3  0 -3],10152.75,31.375,crit,-0.5
12837,Greek pest,12837,6,[-2  1 -1  2 -2 -3],7498.666666666667,26.5,crit,-0.8333333333333334
7296,Greek precaution,7296,3,[-1  0  3],3572.3333333333335,33.333333333333336,crit,0.6666666666666666
9748,Greek publicity,9748,5,[-1  2  3  2  0],4998.2,45.2,crit,1.2
8463,Greek resurrection,8463,7,[ 2  1 -2  0  0  3 -3],3771.285714285714,32.285714285714285,crit,0.14285714285714285
6770,Greek rubbish,6770,7,[ 3  3  3 -3  1  0 -3],3455.0,33.42857142857143,crit,0.5714285714285714
18373,Greek severity,18373,11,[-3 -1  2  3 -2  1  2  2 -3  1  1],4374.818181818182,32.18181818181818,crit,0.2727272727272727
7479,Greek staircase,7479,12,[ 1  3  2  2  3  3  2 -2  3 -1 -3  1],3470.5833333333335,36.0,crit,1.1666666666666667
15509,Greek stimulus,15509,6,[-3 -3  1 -3 -2 -3],5107.166666666667,30.666666666666668,crit,-2.1666666666666665
8540,Greek storyline,8540,5,[3 2 3 3 1],3371.0,35.0,crit,2.4
10890,Greek workload,10890,13,[-2 -1  1 -1 -2  1 -2 -3  1 -2 -3 -3  0],4417.307692307692,31.153846153846153,crit,-1.2307692307692308
16026,Indian abortion,16026,7,[ 3  0  0  3  3  2 -3],4194.571428571428,34.285714285714285,crit,1.1428571428571428
16052,Indian decay,16052,5,[-1  1  0 -3 -1],3734.2,34.6,crit,-0.8
1312,Indian fantasy,1312,8,[2 2 3 3 3 0 2 1],4588.125,31.75,crit,2.0
4268,Indian favor,4268,7,[ 1 -2  3 -1  0  1 -1],3855.5714285714284,40.57142857142857,crit,0.14285714285714285
6296,Indian favour,6296,10,[-2 -3 -3  2 -3 -1 -3 -3  2 -1],5151.3,39.4,crit,-1.5
272,Indian firearm,272,5,[3 2 2 2 2],4964.6,29.4,crit,2.2
1113,Indian hell,1113,5,[-3  2 -2  3  1],4336.0,25.2,crit,0.2
12952,Indian landfill,12952,4,[2 1 2 2],25807.25,39.25,crit,1.75
10870,Indian litigation,10870,7,[ 1  0  2  1  1  0 -2],3418.285714285714,40.0,crit,0.42857142857142855
17642,Indian morality,17642,11,[ 1  1  0  2  3  3 -1 -2  1  2  2],3701.7272727272725,31.363636363636363,crit,1.0909090909090908
6062,Indian newsletter,6062,11,[ 3  3  3  3  3 -2  0  3  3  3  3],3579.181818181818,34.45454545454545,crit,2.272727272727273
3304,Indian particular,3304,7,[-2  1 -3 -3 -3  3 -1],4123.285714285715,25.142857142857142,crit,-1.1428571428571428
16504,Indian plaque,16504,6,[-3  3  2 -2  2 -3],5842.833333333333,29.0,crit,-0.16666666666666666
17708,Indian platinum,17708,9,[ 1 -1  3  2 -3  0 -3 -3  1],3924.777777777778,27.444444444444443,crit,-0.3333333333333333
19011,Indian proposition,19011,4,[-3  3  2 -3],5072.25,28.0,crit,-0.25
17886,Indian ram,17886,4,[ 3  0 -1 -1],10397.5,28.25,crit,0.25
4552,Indian regard,4552,6,[-1 -3 -1 -3  1  2],4217.666666666667,24.5,crit,-0.8333333333333334
571,Indian rowing,571,11,[-2 -2  1 -2  0 -3  3  3  3  1 -2],4263.545454545455,30.0,crit,0.0
17462,Indian ski,17462,9,[-2 -3  2  1 -3 -1  0 -2 -3],5225.888888888889,31.444444444444443,crit,-1.2222222222222223
3449,Indian telescope,3449,9,[1 1 3 3 3 1 3 2 2],2908.777777777778,33.666666666666664,crit,2.111111111111111
14202,Indian verdict,14202,9,[-2  3  2 -2 -3  2 -3 -1 -3],2908.8888888888887,36.333333333333336,crit,-0.7777777777777778
3710,Indian viewing,3710,10,[ 1 -3 -2  3 -3 -2  3 -3 -3 -2],7295.1,29.7,crit,-1.1
14221,Iraqi anniversary,14221,4,[ 3 -3  2  0],3754.75,38.5,crit,0.5
5118,Iraqi astronomer,5118,8,[ 3  3  3  3  2  3  3 -1],3889.5,28.625,crit,2.375
15729,Iraqi awareness,15729,6,[ 0  1 -3  1  3 -3],4030.5,30.833333333333332,crit,-0.16666666666666666
7471,Iraqi boyfriend,7471,8,[2 3 2 3 3 3 2 3],3421.875,31.125,crit,2.625
4803,Iraqi bracket,4803,10,[ 0 -3 -3 -3  3 -3  1 -3 -3 -2],4679.7,38.9,crit,-1.6
932,Iraqi bull,932,12,[ 1  2  3  2  1  3 -3 -2  1  1  3  2],5517.75,36.083333333333336,crit,1.1666666666666667
10313,Iraqi daughter,10313,5,[3 3 3 3 3],5095.6,29.8,crit,3.0
13918,Iraqi dismissal,13918,6,[ 1  2  3 -1 -1  2],5411.166666666667,34.666666666666664,crit,1.0
2427,Iraqi download,2427,9,[-3 -3 -3 -3 -3 -1 -3 -3  0],3593.3333333333335,30.333333333333332,crit,-2.4444444444444446
19810,Iraqi exclusion,19810,3,[-1  2  1],2482.3333333333335,26.0,crit,0.6666666666666666
15802,Iraqi extension,15802,10,[ 1  1 -3 -2 -3 -3 -2  1 -1 -1],8203.5,30.6,crit,-1.2
11508,Iraqi fairy,11508,12,[-3  3  3 -3 -2 -2  0 -1  1  1  2 -3],5476.833333333333,33.0,crit,-0.3333333333333333
19628,Iraqi guideline,19628,8,[ 1  2  2  3  1 -1  1 -2],4145.875,31.0,crit,0.875
12140,Iraqi hit,12140,6,[ 2 -2  2  0  0  3],4312.166666666667,30.666666666666668,crit,0.8333333333333334
11655,Iraqi hull,11655,6,[ 1  0 -3 -3 -2  1],5679.5,36.833333333333336,crit,-1.0
7800,Iraqi identifier,7800,6,[ 1  3  3 -2  3 -1],3917.0,28.666666666666668,crit,1.1666666666666667
8467,Iraqi jury,8467,8,[ 2  3  1  3  2  2 -3 -2],3583.0,31.75,crit,1.0
16095,Iraqi landowner,16095,8,[ 3  3  3  3  3  2 -3  3],9332.875,32.5,crit,2.125
14405,Iraqi memorial,14405,7,[3 1 3 3 1 3 3],6904.285714285715,38.0,crit,2.4285714285714284
8324,Iraqi organ,8324,7,[-3 -3 -3  1 -3 -3 -1],4729.714285714285,32.857142857142854,crit,-2.142857142857143
18299,Iraqi pepper,18299,3,[ 2  1 -2],4792.0,47.333333333333336,crit,0.3333333333333333
5062,Iraqi perfection,5062,10,[-3  1 -3  1  0  1 -3  0  2 -1],5668.0,25.3,crit,-0.5
10832,Iraqi pest,10832,10,[ 2  3 -3 -3  1 -3 -1 -2  2  2],4363.8,33.6,crit,-0.2
19513,Iraqi potato,19513,4,[-3  1  3  1],5980.0,30.0,crit,0.5
464,Iraqi pound,464,6,[-3  3 -2  2  2 -1],11119.333333333334,23.166666666666668,crit,0.16666666666666666
13133,Iraqi race,13133,12,[ 2  3 -1  3 -2 -3  2  2  3  3  3  1],6573.25,28.833333333333332,crit,1.3333333333333333
13563,Iraqi reading,13563,8,[ 0  1  3 -1  1 -3 -3 -1],6318.375,31.375,crit,-0.375
4026,Iraqi refreshment,4026,12,[-2 -3  2  3 -2  2  3  2 -1  2 -3 -3],3885.75,27.833333333333332,crit,0.0
14877,Iraqi rider,14877,5,[-3  2  3 -2  2],4225.2,29.6,crit,0.4
19541,Iraqi rugby,19541,5,[ 3  3  1 -2  3],2761.6,33.2,crit,1.6
18086,Iraqi search,18086,8,[-2  3  2 -3  2  3 -1 -3],3170.375,36.625,crit,0.125
1657,Iraqi shift,1657,8,[ 2  1 -2 -2 -3 -2  3  3],4804.625,33.0,crit,0.0
17119,Iraqi simplicity,17119,7,[ 2 -2 -3 -2 -3  0 -2],5387.0,30.142857142857142,crit,-1.4285714285714286
5114,Iraqi simulation,5114,7,[ 1  3 -1 -2  2  2 -3],4163.571428571428,27.571428571428573,crit,0.2857142857142857
18914,Iraqi sociology,18914,7,[ 2 -3  2  3  3  2  3],5301.571428571428,31.142857142857142,crit,1.7142857142857142
11976,Iraqi spelling,11976,10,[ 3  0  1  1  3  2 -2  1 -3  1],8060.2,27.6,crit,0.7
14666,Iraqi spin,14666,9,[ 0 -1 -2  3 -2 -3  1 -3 -3],8737.111111111111,28.666666666666668,crit,-1.1111111111111112
8360,Iraqi spiral,8360,7,[-2 -3 -3 -2 -2 -3  3],8055.285714285715,25.285714285714285,crit,-1.7142857142857142
1093,Iraqi steel,1093,6,[ 3 -3  3  3  2  3],5398.166666666667,26.666666666666668,crit,1.8333333333333333
1619,Iraqi suite,1619,12,[ 2  3  0 -2  3 -3 -3  2 -3  0 -2  1],8761.333333333334,27.833333333333332,crit,-0.16666666666666666
6040,Iraqi sum,6040,10,[ 0 -3 -1  0 -2 -1 -3  0 -2 -2],7407.7,28.1,crit,-1.4
12147,Iraqi switch,12147,9,[ 2  3  2 -3  0 -2 -3  0 -3],3657.222222222222,33.888888888888886,crit,-0.4444444444444444
7447,Iraqi sword,7447,12,[ 0 -3 -3  3  3 -3  2  3 -1  3 -2  2],4551.5,36.583333333333336,crit,0.3333333333333333
14667,Iraqi terrain,14667,6,[3 3 3 1 2 3],6204.833333333333,40.0,crit,2.5
8955,Iraqi tolerance,8955,10,[-3  0 -3  2  3 -1 -3  0 -3  2],4129.9,35.9,crit,-0.6
2036,Iraqi warranty,2036,7,[-3 -1 -3 -3 -3 -3 -2],2851.0,29.428571428571427,crit,-2.5714285714285716
3008,Iraqi wildlife,3008,7,[2 3 2 2 0 0 2],5751.428571428572,25.857142857142858,crit,1.5714285714285714
5416,Irish DNA,5416,14,[ 3  3  3  3  3  3  3  1 -3  3  3  3  2  3],3198.6428571428573,31.0,crit,2.357142857142857
10960,Irish accessibility,10960,5,[ 1  0 -3  2 -3],15478.2,33.4,crit,-0.6
8205,Irish bonus,8205,9,[ 1  3 -2  3  1 -3 -2  1 -1],6018.555555555556,30.88888888888889,crit,0.1111111111111111
4185,Irish bureaucracy,4185,8,[3 3 0 3 3 2 0 3],5084.0,39.125,crit,2.125
6614,Irish cab,6614,11,[3 2 1 0 3 2 1 2 2 1 3],4416.181818181818,29.727272727272727,crit,1.8181818181818181
19678,Irish combat,19678,2,[2 3],2481.5,26.5,crit,2.5
9129,Irish cult,9129,5,[2 3 1 3 1],2459.4,25.0,crit,2.0
16907,Irish disk,16907,7,[ 0  2 -2 -1  3  1 -2],4680.428571428572,39.714285714285715,crit,0.14285714285714285
15399,Irish kilometre,15399,6,[-2 -3 -3 -3 -3 -2],4536.0,30.166666666666668,crit,-2.6666666666666665
3428,Irish lender,3428,5,[3 3 2 2 3],4445.2,33.6,crit,2.6
10428,Irish licensing,10428,10,[ 2  2  3 -3  3  1 -1 -2  3  2],10729.9,41.3,crit,1.0
5953,Irish midnight,5953,11,[ 3 -3 -1 -3 -1 -2  0 -3  1  2  0],3367.0,34.18181818181818,crit,-0.6363636363636364
13632,Irish nucleus,13632,5,[ 0 -3 -2  2 -3],2880.2,30.6,crit,-1.2
4511,Irish pond,4511,17,[ 3  3  2  3 -3  3  2  2  3  3  3  2 -3  3 -2  3  3],3222.176470588235,37.23529411764706,crit,1.7647058823529411
1541,Irish praise,1541,9,[-2  0 -3  0  3 -3 -1  3  3],4059.1111111111113,36.111111111111114,crit,0.0
734,Irish quotation,734,4,[-1  2  3  0],3791.75,31.0,crit,1.0
18778,Irish rabbit,18778,7,[3 3 3 3 2 0 3],5512.428571428572,35.42857142857143,crit,2.4285714285714284
14254,Irish rape,14254,6,[-3 -3 -3 -2  1 -3],4586.333333333333,33.666666666666664,crit,-2.1666666666666665
4415,Irish remit,4415,12,[ 1  1 -3  2 -3 -1 -2 -3  1 -3 -2  0],8346.916666666666,32.0,crit,-1.0
5035,Irish shade,5035,8,[-3 -3 -1  0 -3 -3 -2  0],4819.625,27.0,crit,-1.875
19031,Islamic Internet,19031,5,[ 1 -3  2  2  0],5102.4,27.0,crit,0.4
4866,Islamic absorption,4866,9,[-3  1 -2  0  1 -2  3  3 -1],5309.555555555556,38.0,crit,0.0
16021,Islamic alphabet,16021,9,[ 3  3  3  3  3  3  3 -3  3],12015.555555555555,38.44444444444444,crit,2.3333333333333335
14764,Islamic autobiography,14764,9,[ 2  2  3  0  2 -3  3  1  2],4074.3333333333335,33.44444444444444,crit,1.3333333333333333
3927,Islamic bundle,3927,8,[-3 -3  3 -3 -3 -2 -3 -2],3358.125,33.125,crit,-2.0
12160,Islamic contamination,12160,7,[-3  0 -2  2 -3  1  1],3335.8571428571427,31.0,crit,-0.5714285714285714
11340,Islamic controller,11340,4,[ 0  2  2 -1],3898.75,31.75,crit,0.75
11416,Islamic copy,11416,3,[ 2 -1  3],3979.6666666666665,35.666666666666664,crit,1.3333333333333333
7616,Islamic creator,7616,10,[ 2  3  1  0  3 -1  3  0 -3  3],4400.1,30.3,crit,1.1
8693,Islamic demon,8693,5,[ 3 -3  3 -1 -3],6274.8,34.8,crit,-0.2
5660,Islamic diameter,5660,10,[-3 -3 -2 -3 -3 -3 -3 -3 -3 -3],3468.2,28.5,crit,-2.9
1652,Islamic disciple,1652,11,[3 2 3 3 3 2 1 1 1 1 3],3792.090909090909,30.363636363636363,crit,2.090909090909091
15772,Islamic disposal,15772,10,[ 1 -3  3 -1 -3  1  2  3 -1 -3],4486.3,29.7,crit,-0.1
18218,Islamic dispute,18218,10,[ 0  3  2  3  1  0  2 -1  2  2],3850.0,31.2,crit,1.4
16404,Islamic dock,16404,4,[-3  1  2 -2],3535.0,34.25,crit,-0.5
12970,Islamic downtown,12970,8,[ 1  2 -3 -3 -2 -3 -1  3],4133.75,31.75,crit,-0.75
2800,Islamic glance,2800,2,[-3  0],3551.5,32.5,crit,-1.5
6282,Islamic hormone,6282,12,[-2 -3 -3 -3 -3 -2  0 -3 -3 -3 -2 -2],4038.0833333333335,32.583333333333336,crit,-2.4166666666666665
7313,Islamic lab,7313,7,[-1  3  3  3 -1 -1  2],3485.8571428571427,30.142857142857142,crit,1.1428571428571428
2193,Islamic luggage,2193,4,[-3 -2 -2  3],3001.75,30.25,crit,-1.0
10132,Islamic missile,10132,5,[ 3 -3  3  2  3],3286.2,28.2,crit,1.6
17623,Islamic motor,17623,7,[-3  2 -3  1 -1  2  2],3696.714285714286,35.57142857142857,crit,0.0
744,Islamic passing,744,10,[-2 -2 -1 -3  3 -3 -3 -2  0 -3],3298.8,33.4,crit,-1.6
4092,Islamic plasma,4092,9,[-2 -3 -3 -3 -3 -3 -3 -2 -3],3300.0,29.666666666666668,crit,-2.7777777777777777
7107,Islamic removal,7107,6,[ 0  2  3  3  2 -3],3429.5,40.166666666666664,crit,1.1666666666666667
5268,Islamic spreadsheet,5268,3,[-1  1 -3],4213.0,25.666666666666668,crit,-1.0
2016,Islamic squash,2016,6,[-2 -3 -1 -3 -2 -2],4038.6666666666665,33.666666666666664,crit,-2.1666666666666665
9993,Islamic stem,9993,9,[ 2  0  1  0 -3  0  1 -3  0],3517.8888888888887,25.0,crit,-0.2222222222222222
10195,Islamic suspicion,10195,7,[ 3  0  0  1 -3 -3 -3],4664.714285714285,34.42857142857143,crit,-0.7142857142857143
341,Islamic synopsis,341,7,[ 2 -1 -3  0  1  3  0],5551.428571428572,29.428571428571427,crit,0.2857142857142857
3342,Islamic tournament,3342,10,[ 1 -2  3  2 -1  3  0 -3  0  2],6093.4,32.7,crit,0.5
12793,Islamic widow,12793,12,[ 3  3 -2  2  3  3  3  3 -3  3  0  2],3759.8333333333335,39.916666666666664,crit,1.6666666666666667
1206,Israeli advancement,1206,3,[-1  2  2],3930.6666666666665,34.0,crit,1.0
13671,Israeli arrival,13671,11,[ 3  3 -2  2  3  2 -3  2  3 -3  3],3839.6363636363635,31.90909090909091,crit,1.1818181818181819
19573,Israeli atom,19573,5,[-3  2 -2 -3 -3],3071.2,35.4,crit,-1.8
11057,Israeli batch,11057,5,[-3 -3  1  1 -1],3842.0,32.0,crit,-1.0
8754,Israeli boiler,8754,6,[ 3 -3 -3  0 -2 -3],5217.0,40.4,crit,-1.3333333333333333
8525,Israeli castle,8525,8,[3 3 3 2 3 3 3 3],3374.125,30.25,crit,2.875
7073,Israeli detective,7073,4,[3 3 3 3],3781.5,26.25,crit,3.0
19934,Israeli discipline,19934,3,[-2 -2  3],5271.666666666667,25.666666666666668,crit,-0.3333333333333333
14851,Israeli diving,14851,10,[-3  0  1 -3  1 -3  1 -2 -3 -1],5387.7,35.7,crit,-1.2
12382,Israeli employability,12382,4,[ 1  0 -2 -2],7332.75,29.0,crit,-0.75
17408,Israeli frequency,17408,12,[-3  2 -3 -3 -3 -3 -3  2 -3 -3 -3 -2],5071.25,30.666666666666668,crit,-2.0833333333333335
13550,Israeli globe,13550,6,[-3 -3 -3  1  3 -3],5439.333333333333,28.5,crit,-1.3333333333333333
4238,Israeli gravel,4238,9,[2 0 0 2 2 2 3 2 3],6747.555555555556,29.77777777777778,crit,1.7777777777777777
14133,Israeli hockey,14133,5,[-3 -3  3 -1 -3],3009.2,35.8,crit,-1.4
6901,Israeli inside,6901,10,[-3 -3 -1 -1  3 -3 -3 -1 -3  2],3734.5,32.0,crit,-1.3
2863,Israeli leak,2863,7,[ 3  3  1  0 -3  1 -2],3387.4285714285716,37.714285714285715,crit,0.42857142857142855
8530,Israeli leap,8530,8,[-3 -3  0 -3 -2 -3  2 -2],3396.75,39.875,crit,-1.75
6335,Israeli mall,6335,6,[2 3 2 1 3 2],4407.166666666667,28.666666666666668,crit,2.1666666666666665
19418,Israeli midwife,19418,12,[2 2 0 0 3 3 3 3 3 2 3 2],3251.5,28.416666666666668,crit,2.1666666666666665
13125,Israeli object,13125,8,[ 2  0  3  2 -1  0  3  2],3975.375,34.375,crit,1.375
11840,Israeli offering,11840,13,[ 1  1  2  1  3 -1  1  1  3 -3  3 -3  2],4577.692307692308,29.076923076923077,crit,0.8461538461538461
5890,Israeli packaging,5890,7,[ 3 -2  2 -2 -3  3  2],4113.285714285715,30.857142857142858,crit,0.42857142857142855
14721,Israeli parking,14721,11,[ 3 -2 -2 -3 -2 -1 -3  3  3 -3  0],4295.909090909091,34.72727272727273,crit,-0.6363636363636364
19712,Israeli passing,19712,6,[ 0  1 -2 -3 -3 -3],7111.5,35.833333333333336,crit,-1.6666666666666667
104,Israeli planet,104,7,[ 2 -3 -3 -2 -1 -3 -3],4304.571428571428,29.5,crit,-1.8571428571428572
19295,Israeli receptor,19295,5,[ 2  1 -3 -3  2],5664.6,31.2,crit,-0.2
16051,Israeli rep,16051,7,[ 2 -3 -3  0  3  1 -3],3095.1428571428573,33.714285714285715,crit,-0.42857142857142855
17597,Israeli retrieval,17597,6,[-3  0 -3  1  0  3],2561.1666666666665,29.833333333333332,crit,-0.3333333333333333
10475,Israeli scratch,10475,11,[-3  0 -2  1 -2 -3 -2 -3 -3 -3 -3],3803.2727272727275,32.63636363636363,crit,-2.090909090909091
13155,Israeli scrutiny,13155,7,[-2  3 -2 -1  2  2  3],2961.8571428571427,25.428571428571427,crit,0.7142857142857143
18161,Israeli sensor,18161,8,[ 1 -3 -3  1  3  2  1 -2],4429.75,29.625,crit,0.0
18381,Israeli sequel,18381,7,[ 3 -2 -3 -3  3  0  2],3291.714285714286,30.0,crit,0.0
19706,Israeli skill,19706,6,[ 1  3 -3  3 -2  1],2941.8333333333335,31.5,crit,0.5
15194,Israeli spiral,15194,9,[ 2 -3  0 -2  1 -2 -3  1 -3],8364.333333333334,31.0,crit,-1.0
18518,Israeli stick,18518,8,[ 0  0 -3  3 -1  0 -3 -2],4154.125,32.75,crit,-0.75
10662,Israeli suit,10662,4,[ 0  3  3 -2],2771.75,28.0,crit,1.0
8362,Israeli tape,8362,10,[-1 -3  0 -3 -2 -3  0 -3  2  3],3691.5,35.7,crit,-1.0
17923,Israeli testing,17923,5,[-2  2 -3  3  3],4749.4,36.6,crit,0.6
2370,Israeli texture,2370,6,[-3  0 -3 -3  1 -3],3260.6666666666665,29.666666666666668,crit,-1.8333333333333333
7402,Israeli valuation,7402,7,[-2  0 -3  3 -1  1 -2],3327.0,24.285714285714285,crit,-0.5714285714285714
10246,Italian Christianity,10246,9,[ 3 -3 -1 -1  1 -2 -2  3  2],3240.222222222222,29.0,crit,0.0
17556,Italian advantage,17556,7,[ 3 -2  3  1 -3  0  3],3366.5714285714284,30.285714285714285,crit,0.7142857142857143
11686,Italian arthritis,11686,9,[-3 -3 -2 -3 -3 -3  1 -3 -3],4527.888888888889,28.444444444444443,crit,-2.4444444444444446
15748,Italian assertion,15748,8,[ 2 -2 -1 -3 -1  2  1 -1],6930.75,36.5,crit,-0.375
15354,Italian axe,15354,7,[ 3 -3  2  3  3  1  0],3761.4285714285716,28.571428571428573,crit,1.2857142857142858
16549,Italian batsman,16549,3,[ 1 -3  3],8847.666666666666,24.666666666666668,crit,0.3333333333333333
4091,Italian bone,4091,10,[ 3  1 -2  3 -1  3 -3  2 -3  1],2993.6,29.3,crit,0.4
4732,Italian capsule,4732,6,[ 1 -3  1  0  0  2],3515.0,31.5,crit,0.16666666666666666
5597,Italian clue,5597,8,[ 3  0 -1 -3  2  1  1  3],3488.875,33.375,crit,0.75
11819,Italian completion,11819,9,[-2 -2 -3  2 -3  0 -2 -3 -3],5769.888888888889,31.22222222222222,crit,-1.7777777777777777
3799,Italian diving,3799,9,[ 3  2 -3  0  3  2 -3 -2  1],3812.777777777778,26.88888888888889,crit,0.3333333333333333
13676,Italian heat,13676,4,[ 3 -3 -3  1],4959.5,25.25,crit,-0.5
9739,Italian implication,9739,8,[-1 -3  2  3 -1  3 -1 -1],3698.625,33.5,crit,0.125
19313,Italian induction,19313,4,[-3 -3 -2 -3],2772.75,25.75,crit,-2.75
721,Italian insulation,721,9,[-2 -1 -3  1 -2  1 -2  2 -3],2812.6666666666665,33.77777777777778,crit,-1.0
1309,Italian insulin,1309,9,[-3 -3  0 -3 -2 -3 -2 -3 -1],3141.777777777778,28.555555555555557,crit,-2.2222222222222223
837,Italian isolation,837,9,[-2 -1 -2  2 -3  0  0 -2 -2],6509.444444444444,33.333333333333336,crit,-1.1111111111111112
19221,Italian million,19221,7,[ 2 -1 -2 -1 -3  1 -3],4729.857142857143,37.57142857142857,crit,-1.0
15499,Italian outcome,15499,6,[-2 -1  2  2 -2  1],4488.166666666667,27.666666666666668,crit,0.0
2345,Italian phase,2345,8,[ 2 -3  3  3  3  3  1  3],3587.5,35.5,crit,1.875
14734,Italian reasoning,14734,11,[ 1  1  2  3  3 -1  1  1  3 -2  3],4613.090909090909,35.18181818181818,crit,1.3636363636363635
13666,Italian storage,13666,11,[-1  3  1  3  2 -3  0  1  3 -1  0],3692.181818181818,39.09090909090909,crit,0.7272727272727273
11841,Italian substrate,11841,7,[ 0  1 -2 -3  2 -1  1],2431.4285714285716,31.428571428571427,crit,-0.2857142857142857
17011,Japanese NHS,17011,5,[-2  3 -3  2  2],4974.2,34.0,crit,0.4
4297,Japanese autonomy,4297,9,[ 0 -2  0  0  3  3  3  1  3],5845.333333333333,29.11111111111111,crit,1.2222222222222223
1089,Japanese basement,1089,8,[ 1  3  2 -3  3  2  3  1],5801.625,39.0,crit,1.5
17297,Japanese benchmark,17297,8,[ 3  3  1 -3  2  1 -3  3],4271.75,31.375,crit,0.875
3247,Japanese broadband,3247,7,[2 2 1 2 3 2 1],4103.714285714285,25.285714285714285,crit,1.8571428571428572
17159,Japanese cannabis,17159,8,[ 3  3  3 -3  2  3  3  1],3576.0,42.875,crit,1.875
4754,Japanese commencement,4754,6,[ 1 -2  3  2 -3  3],5659.833333333333,33.666666666666664,crit,0.6666666666666666
8304,Japanese discretion,8304,11,[ 0  2  0 -3  2 -2 -3  3  1  0 -1],3910.818181818182,35.0,crit,-0.09090909090909091
3886,Japanese dismissal,3886,10,[ 3 -2 -3 -3  3 -3  3 -3 -3 -3],6736.5,33.0,crit,-1.1
1638,Japanese injection,1638,14,[ 2  0 -3 -2 -3  1  2  2  3 -3 -1  2  2 -1],5580.357142857143,36.285714285714285,crit,0.07142857142857142
12953,Japanese kernel,12953,7,[ 3  0 -1 -2 -3 -3  1],23106.85714285714,34.285714285714285,crit,-0.7142857142857143
11657,Japanese meantime,11657,8,[-3  0 -2  0 -3 -3  1 -3],4053.375,33.125,crit,-1.625
17640,Japanese metadata,17640,7,[ 2  3  1 -2  0  2  2],3474.714285714286,32.0,crit,1.1428571428571428
5626,Japanese mud,5626,9,[ 3 -1  3  3 -3  3  3 -3  3],4133.555555555556,35.666666666666664,crit,1.2222222222222223
16674,Japanese profit,16674,13,[ 3  3  2 -1  3  3  3  0  0 -3 -1  1  3],4263.538461538462,31.0,crit,1.2307692307692308
13913,Japanese semester,13913,5,[ 2  2  3  2 -2],3872.2,25.6,crit,1.4
18186,Japanese sin,18186,2,[3 3],3798.5,31.0,crit,3.0
15131,Japanese uprising,15131,6,[3 3 2 3 3 3],4328.833333333333,34.833333333333336,crit,2.8333333333333335
13300,Japanese woodland,13300,13,[ 3  3  3  3 -3  3  3  2  3  3  2  3  3],3915.769230769231,33.61538461538461,crit,2.3846153846153846
10723,Jewish batsman,10723,9,[-2  3 -3 -2  2 -2 -3 -3  1],3820.5555555555557,33.55555555555556,crit,-1.0
3701,Jewish bid,3701,6,[ 3  2 -2  2  0  3],7122.166666666667,30.666666666666668,crit,1.3333333333333333
6226,Jewish bombing,6226,7,[ 3  2  0  3  3 -3 -3],5416.285714285715,30.285714285714285,crit,0.7142857142857143
14362,Jewish byte,14362,10,[-2 -3 -3 -3 -3 -2 -3  0 -2 -3],4898.0,35.2,crit,-2.4
14904,Jewish calculator,14904,8,[-2  3  3 -3 -2  0  0 -3],4066.375,44.5,crit,-0.5
16890,Jewish casino,16890,7,[ 0 -1  2  2  2  2  2],8966.42857142857,38.714285714285715,crit,1.2857142857142858
3322,Jewish certainty,3322,5,[ 1 -1 -3  2  3],3313.2,27.6,crit,0.4
1567,Jewish checking,1567,11,[-3 -3 -2 -1 -1 -3 -3 -1  1 -3 -3],5567.545454545455,29.545454545454547,crit,-2.0
10128,Jewish cheer,10128,7,[-2 -3  2  2  3 -2  0],4239.571428571428,33.142857142857146,crit,0.0
3182,Jewish curiosity,3182,9,[ 3  0 -2  3  2  0  3  3 -1],3845.3333333333335,31.444444444444443,crit,1.2222222222222223
17936,Jewish debit,17936,8,[ 3 -1 -3  1 -2 -2 -3 -3],8021.25,30.875,crit,-1.25
6089,Jewish diamond,6089,9,[-3 -1  0  0  2  2  2  2  2],3038.222222222222,28.444444444444443,crit,0.6666666666666666
15493,Jewish disposal,15493,8,[-1 -2  0  1 -2 -3 -3  1],7258.0,29.0,crit,-1.125
10509,Jewish evaluation,10509,8,[ 0  1  3  1 -3  2  0 -1],5661.875,35.375,crit,0.375
17613,Jewish fault,17613,13,[ 0 -3 -2 -1  0  2 -2 -3 -2 -1 -3 -1  1],5724.538461538462,35.69230769230769,crit,-1.1538461538461537
3071,Jewish firing,3071,8,[ 0 -3 -3  0 -3 -3 -3 -3],4726.375,34.875,crit,-2.25
15812,Jewish globe,15812,8,[-3  0  0 -1 -3 -2 -3 -2],3971.5,31.625,crit,-1.75
10202,Jewish grade,10202,8,[ 3 -2 -3 -1 -3 -3  3  0],4501.125,32.125,crit,-0.75
736,Jewish hardware,736,9,[-2 -2 -3  2 -2  0 -3  2  1],3664.0,32.77777777777778,crit,-0.7777777777777778
6033,Jewish interval,6033,8,[-3 -3  3 -2 -3 -3 -3  1],3109.875,26.5,crit,-1.625
5569,Jewish laboratory,5569,9,[ 3  3  3  3  2 -3  1  3  1],4437.888888888889,30.666666666666668,crit,1.7777777777777777
9044,Jewish mansion,9044,5,[ 1  3 -1  0  2],10592.6,31.2,crit,1.0
6209,Jewish mercy,6209,4,[0 3 0 2],4239.0,32.5,crit,1.25
7944,Jewish pass,7944,7,[-1 -3 -3  0  3  2  2],5344.0,40.142857142857146,crit,0.0
5123,Jewish percussion,5123,12,[ 0  0  1  0 -3  2 -2 -2 -3  1  1 -2],5636.833333333333,29.083333333333332,crit,-0.5833333333333334
13437,Jewish photograph,13437,8,[ 1  3  3  2  2  3  0 -2],4463.125,40.25,crit,1.5
15350,Jewish rear,15350,10,[-1 -2 -3  1 -3  0 -3 -1 -3 -1],4643.8,27.3,crit,-1.6
6144,Jewish scanner,6144,3,[-3 -3 -3],2900.3333333333335,21.0,crit,-3.0
1588,Jewish scenario,1588,12,[ 3  0  0 -3 -3  0  0  3  2  0  1  0],3857.4166666666665,28.75,crit,0.25
15097,Jewish screening,15097,5,[ 3 -2 -1  1  1],4225.4,36.0,crit,0.4
4419,Jewish shade,4419,7,[-3 -1 -3 -2  0 -2 -1],6237.571428571428,36.857142857142854,crit,-1.7142857142857142
10983,Jewish snack,10983,9,[ 0  3  3 -3  1 -2 -2  3  0],6605.333333333333,25.77777777777778,crit,0.3333333333333333
330,Jewish studio,330,9,[ 3  3  2  3  1 -2  1 -2  0],3274.8888888888887,29.444444444444443,crit,1.0
9840,Jewish test,9840,3,[-1 -3  1],4338.0,35.666666666666664,crit,-1.0
10986,Jewish tip,10986,7,[-1 -3  2  0  3 -2  2],5873.285714285715,30.857142857142858,crit,0.14285714285714285
6627,Jewish trout,6627,9,[-3 -3 -3 -3 -3 -1 -3 -3 -3],3481.777777777778,29.555555555555557,crit,-2.7777777777777777
2377,Jewish validity,2377,12,[ 3  3 -2  3  0  0  0  0 -3  2 -3  0],3658.75,29.583333333333332,crit,0.25
4680,Jewish velocity,4680,8,[-3 -3 -3 -3 -3 -3 -3 -2],5949.875,33.5,crit,-2.875
5787,Jewish volcano,5787,7,[-3 -3 -3 -3 -3  0 -3],2519.4285714285716,31.857142857142858,crit,-2.5714285714285716
18007,Korean amendment,18007,5,[ 3 -2  2  2  2],4034.4,28.6,crit,1.4
10397,Korean barn,10397,10,[ 1 -1  3  3 -1  1  3  3 -2  3],5583.9,33.2,crit,1.3
14911,Korean beach,14911,4,[3 3 3 3],2553.75,30.5,crit,3.0
6730,Korean biscuit,6730,3,[3 0 0],92871.0,25.666666666666668,crit,1.0
1496,Korean bundle,1496,10,[-2 -3  3 -3  2  2 -1  1 -2 -3],4354.0,31.2,crit,-0.6
20016,Korean burial,20016,3,[-2  0  3],2532.3333333333335,45.0,crit,0.3333333333333333
19416,Korean coffee,19416,4,[1 3 3 3],2379.75,26.25,crit,2.5
6392,Korean continuity,6392,8,[-3 -3  0  1  0 -3  1  1],5114.375,31.375,crit,-0.75
13216,Korean corruption,13216,10,[ 3  2  3  3  3  3  3  2  1 -1],4184.6,31.7,crit,2.2
12884,Korean deed,12884,6,[-2 -2  1  1 -1 -3],5581.166666666667,41.166666666666664,crit,-1.0
6806,Korean dome,6806,8,[ 2  0  1  1  3  3 -1  1],5415.5,29.0,crit,1.25
7232,Korean ecosystem,7232,9,[ 2  3  3  3  1  2 -1  2  3],3429.6666666666665,26.77777777777778,crit,2.0
2949,Korean enclosure,2949,4,[-1  3 -3 -1],2296.25,31.0,crit,-0.5
10958,Korean enthusiasm,10958,8,[1 2 1 0 2 3 3 3],3576.0,33.875,crit,1.875
14193,Korean flame,14193,3,[3 1 1],6449.333333333333,28.666666666666668,crit,1.6666666666666667
6646,Korean fountain,6646,6,[2 3 0 2 2 1],3911.0,27.5,crit,1.6666666666666667
1899,Korean friendship,1899,10,[ 0  3  2  1 -3  3 -2  3 -3  3],3516.9,29.4,crit,0.7
12761,Korean gospel,12761,5,[2 3 2 3 0],3328.6,35.6,crit,2.0
10994,Korean grant,10994,6,[2 1 3 0 0 1],3098.6666666666665,27.833333333333332,crit,1.1666666666666667
10798,Korean ice,10798,4,[ 3 -2  3  1],4485.25,28.75,crit,1.25
1217,Korean imaging,1217,5,[-1  2  1  2 -3],3986.6,34.6,crit,0.2
18402,Korean jungle,18402,5,[1 1 3 3 3],5821.4,31.4,crit,2.2
15489,Korean licence,15489,6,[ 2  3  2  2  3 -2],3721.6666666666665,38.333333333333336,crit,1.6666666666666667
7702,Korean paint,7702,4,[3 3 3 3],2654.5,25.5,crit,3.0
7862,Korean polymer,7862,2,[-1  0],4984.5,24.5,crit,-0.5
2836,Korean reconstruction,2836,6,[ 3  3  2  3 -3  3],3626.1666666666665,24.5,crit,1.8333333333333333
15825,Korean rod,15825,6,[ 2  1 -3 -1 -3  2],4103.0,28.833333333333332,crit,-0.3333333333333333
2868,Korean slice,2868,8,[ 1 -3  2  0  1  1  0 -3],4434.0,37.625,crit,-0.125
533,Korean spin,533,5,[ 0  3 -3 -3 -2],3619.8,28.8,crit,-1.0
9721,Korean surfing,9721,6,[ 0  3 -1 -1 -2 -2],3866.3333333333335,29.666666666666668,crit,-0.5
2792,Korean tooth,2792,6,[ 2  2 -3 -3 -3 -3],2750.0,33.666666666666664,crit,-1.3333333333333333
8426,Korean trading,8426,10,[1 3 2 3 2 2 1 3 3 2],3336.4,32.7,crit,2.2
12943,Latin affiliate,12943,13,[ 3  3  1  0  3  3  0  1  1  1  1 -3  2],4512.7692307692305,30.76923076923077,crit,1.2307692307692308
11167,Latin attachment,11167,9,[ 3 -2 -1  0 -1 -1  0  2 -3],5567.222222222223,31.666666666666668,crit,-0.3333333333333333
15355,Latin baby,15355,10,[ 3  1  1  3  2  3  3  3 -1  1],3617.8,30.5,crit,1.9
6587,Latin badge,6587,7,[ 1  2  1  2 -1  1 -3],3942.5714285714284,30.571428571428573,crit,0.42857142857142855
13077,Latin boost,13077,7,[-1 -3 -3 -3 -3 -3 -2],3496.714285714286,34.0,crit,-2.5714285714285716
5948,Latin chemistry,5948,9,[ 3  1 -3  1 -1 -1  0 -1  0],5738.222222222223,28.88888888888889,crit,-0.1111111111111111
18024,Latin concentration,18024,5,[ 0  3 -3  2 -3],16143.4,48.2,crit,-0.2
10147,Latin conservatory,10147,6,[ 3  3  3 -3  2  3],7268.833333333333,26.0,crit,1.8333333333333333
12893,Latin convenience,12893,12,[-1  1  0  1  2 -2 -2 -3  1  3 -3 -2],5339.666666666667,33.5,crit,-0.4166666666666667
10182,Latin examiner,10182,8,[ 3  2 -3  3  1 -3  0  3],3669.5,25.0,crit,0.75
2421,Latin fatigue,2421,7,[-1 -2  1 -3 -3 -2 -2],3802.285714285714,30.714285714285715,crit,-1.7142857142857142
15951,Latin firing,15951,10,[-3 -2 -2 -3 -1 -3 -2 -3  0 -3],4080.7,35.4,crit,-2.2
12305,Latin freezing,12305,10,[-3 -3 -3 -3 -2 -3 -3 -3 -3 -3],3995.3,30.7,crit,-2.9
7207,Latin funeral,7207,9,[ 2  3  0  3  1  2  3 -2  2],3102.6666666666665,36.77777777777778,crit,1.5555555555555556
1584,Latin grape,1584,9,[-2 -2 -1 -3 -1 -3 -3 -2 -1],9346.666666666666,29.22222222222222,crit,-2.0
13740,Latin harvest,13740,8,[-2 -2  2 -2 -1  0  0  3],5353.25,35.0,crit,-0.25
2105,Latin hearing,2105,3,[-3  1  0],5523.0,23.666666666666668,crit,-0.6666666666666666
11163,Latin ladder,11163,2,[-3  0],10934.0,35.5,crit,-1.5
7178,Latin likelihood,7178,10,[-1 -3  0 -3 -3 -3 -3 -2  2 -3],10007.5,32.8,crit,-1.9
15792,Latin mess,15792,3,[ 3 -3  1],8565.666666666666,28.0,crit,0.3333333333333333
9015,Latin microphone,9015,16,[-3 -3  3 -3  0 -3 -1 -3 -3  3  0 -2  3 -3  0  1],3718.875,34.3125,crit,-0.875
3641,Latin plug,3641,8,[ 0 -2 -3 -3 -3 -3 -2  1],3633.25,34.5,crit,-1.875
12069,Latin principal,12069,8,[ 1  2  1  1  3  1 -2  1],4241.375,28.75,crit,1.0
6782,Latin rate,6782,9,[ 1 -3 -3 -3 -2 -2 -1 -2  0],3981.0,31.88888888888889,crit,-1.6666666666666667
8127,Latin riot,8127,5,[ 1  1 -1 -2  1],4413.4,36.2,crit,0.0
9982,Latin scandal,9982,10,[ 3  0  2  1  2 -2 -3  1 -3 -3],3800.2,30.1,crit,-0.2
15985,Latin significance,15985,8,[-2  2  0 -3  2 -3  3  3],4174.875,32.0,crit,0.25
12614,Latin spray,12614,5,[-3 -3 -3  1 -1],2302.8,26.8,crit,-1.8
9675,Latin stripe,9675,4,[ 0 -1 -2 -3],2606.25,27.5,crit,-1.5
2837,Latin succession,2837,14,[ 2  3  1  3  3  3 -1 -2  2  1  0 -3  3  0],5085.214285714285,34.142857142857146,crit,1.0714285714285714
3138,Latin trial,3138,10,[ 3 -3  2  3 -1 -1 -2  1 -1 -3],5964.5,28.3,crit,-0.2
15040,Latin wreck,15040,6,[-3 -3 -3  1 -3 -2],2442.8333333333335,37.5,crit,-2.1666666666666665
17200,Latin youngster,17200,12,[ 2 -1  3  0  3  3  3  2  3  3  3  2],3066.1666666666665,35.833333333333336,crit,2.1666666666666665
11695,Muslim Sunday,11695,6,[ 1 -3 -1 -3  2 -2],3386.8333333333335,24.666666666666668,crit,-1.0
1430,Muslim allegation,1430,6,[-2 -3  3  1  0  2],4516.5,29.0,crit,0.16666666666666666
5908,Muslim application,5908,11,[ 3 -2  1  3  1  0 -1 -3  1  1  3],5138.727272727273,33.18181818181818,crit,0.6363636363636364
5982,Muslim artillery,5982,14,[ 2  3 -3 -1  2 -2  3  3 -2  3  2 -2  3  0],4278.428571428572,37.214285714285715,crit,0.7857142857142857
12114,Muslim ballet,12114,7,[ 3  0  2 -1  2 -3  3],3437.0,31.0,crit,0.8571428571428571
19055,Muslim barrier,19055,2,[-3  1],3735.0,35.0,crit,-1.0
10456,Muslim bishop,10456,5,[-3  1 -3 -3  1],5882.4,39.6,crit,-1.4
10152,Muslim cargo,10152,9,[ 0  2 -2 -1 -1  1  1  3 -3],3859.1111111111113,31.22222222222222,crit,0.0
1902,Muslim carrier,1902,5,[ 3  3 -1 -3  0],4510.2,32.4,crit,0.4
19139,Muslim choir,19139,6,[0 1 3 2 2 3],5090.5,35.666666666666664,crit,1.8333333333333333
8293,Muslim clone,8293,13,[-3 -3  3  1 -2 -1 -3 -2  1  0 -2 -3  2],4817.7692307692305,33.23076923076923,crit,-0.9230769230769231
14743,Muslim coast,14743,9,[ 1  1  2  2  1  3  1 -3 -2],4702.333333333333,39.666666666666664,crit,0.6666666666666666
11451,Muslim competence,11451,14,[ 1  3  3  2 -2  3  1  2  2  2 -2  2 -2 -3],5007.642857142857,35.0,crit,0.8571428571428571
5964,Muslim coursework,5964,10,[-1  0 -3 -1  3  3  2  3 -3 -3],3706.5,34.9,crit,0.0
18131,Muslim courtyard,18131,9,[-3 -2 -2  2 -1 -2  3 -3 -2],8740.444444444445,31.666666666666668,crit,-1.1111111111111112
10058,Muslim dark,10058,5,[-3  1 -3 -3 -3],3081.6,36.6,crit,-2.2
5947,Muslim dial,5947,10,[-2 -3 -3 -3  2 -3 -2 -3 -3  1],5610.1,31.9,crit,-1.9
8110,Muslim dividend,8110,10,[ 0 -3 -3  1 -1 -3  0  1 -3 -3],4000.6,26.7,crit,-1.4
8658,Muslim dollar,8658,8,[-1 -3 -3 -1 -2 -3 -3  0],4270.25,27.75,crit,-2.0
17984,Muslim earning,17984,5,[-3 -2  1  3 -1],3620.8,27.2,crit,-0.4
17395,Muslim erm,17395,5,[-3  1 -3 -3 -1],12724.4,31.0,crit,-1.8
1950,Muslim error,1950,7,[-2  0 -3  3 -2 -3  3],2836.0,30.857142857142858,crit,-0.5714285714285714
16812,Muslim essay,16812,10,[ 2 -3 -1  3  1  2  2  3  3 -1],6444.7,36.0,crit,1.1
19126,Muslim euro,19126,6,[-3  1 -3 -3  0 -3],3508.8333333333335,30.0,crit,-1.8333333333333333
391,Muslim fighting,391,10,[ 3  0 -3  3  2  0  3  3 -3  0],4212.6,26.8,crit,0.8
18170,Muslim finish,18170,8,[ 1 -3 -2 -3 -3 -3 -3 -1],3414.25,32.25,crit,-2.125
3249,Muslim font,3249,6,[ 1  1  3  1 -3  2],4514.833333333333,33.666666666666664,crit,0.8333333333333334
9769,Muslim fruit,9769,5,[-1 -3 -1 -2 -3],4912.2,39.4,crit,-2.0
6550,Muslim gaming,6550,8,[ 3 -2  1 -3 -3  1 -2  3],5655.125,26.375,crit,-0.25
14337,Muslim gene,14337,13,[-3  3 -3  3 -2 -3 -2 -3  2  2  3 -3 -3],5227.615384615385,43.07692307692308,crit,-0.6923076923076923
8259,Muslim glance,8259,5,[-3  2 -2 -2 -3],3589.2,24.8,crit,-1.6
11895,Muslim location,11895,7,[ 3  2  3 -2 -3  3  3],4279.285714285715,30.571428571428573,crit,1.2857142857142858
6923,Muslim luxury,6923,7,[-1 -3 -1  3 -3  3 -1],3181.0,27.857142857142858,crit,-0.42857142857142855
11197,Muslim manipulation,11197,7,[-3 -1  1  0 -2  0  1],6552.0,32.285714285714285,crit,-0.5714285714285714
12193,Muslim nomination,12193,6,[-1  3  1  3  0  0],5705.5,26.833333333333332,crit,1.0
9761,Muslim pine,9761,5,[-3 -3 -3 -3 -3],4160.4,36.8,crit,-3.0
14143,Muslim prosperity,14143,11,[-3  3  3  2  3  2  1  2  2  2  3],11315.363636363636,33.18181818181818,crit,1.8181818181818181
18298,Muslim proximity,18298,10,[ 3 -3  0 -2  3  2 -2  2 -3  1],5449.3,44.1,crit,0.1
11272,Muslim questionnaire,11272,6,[-1  3  1 -1  3  1],4361.333333333333,36.166666666666664,crit,1.0
8151,Muslim refurbishment,8151,6,[ 0 -2 -1  0 -3 -3],5644.666666666667,44.833333333333336,crit,-1.5
2730,Muslim satellite,2730,9,[-3 -2 -3  3 -3 -3  3  3  2],3677.0,33.888888888888886,crit,-0.3333333333333333
13757,Muslim scrutiny,13757,8,[ 3  1  3 -1 -1 -3  1  2],3282.5,33.5,crit,0.625
13709,Muslim showcase,13709,15,[ 1  2 -3 -3  1 -2  2  3  3 -3  3  0 -1  3 -2],2948.4,29.866666666666667,crit,0.26666666666666666
17082,Muslim surveyor,17082,7,[ 2  0 -1  0  1  3  3],5147.857142857143,30.142857142857142,crit,1.1428571428571428
1344,Muslim threshold,1344,10,[-3  2  3  3 -1 -1 -3 -1  2 -3],6457.8,29.7,crit,-0.2
13856,Muslim thriller,13856,9,[ 3  0 -1  2 -1  3  2  3 -1],4752.666666666667,42.333333333333336,crit,1.1111111111111112
14636,Muslim timetable,14636,3,[ 2  2 -1],2815.3333333333335,30.666666666666668,crit,1.0
1798,Muslim toy,1798,6,[2 1 3 1 2 0],4175.5,27.0,crit,1.5
13458,Muslim wit,13458,7,[ 3 -2  3 -1  2  3  3],3543.285714285714,33.142857142857146,crit,1.5714285714285714
11069,Muslim wool,11069,6,[-1  1  3 -3  3  1],4616.166666666667,34.833333333333336,crit,0.6666666666666666
15909,North advent,15909,10,[-3 -2 -3  3  2 -3  3 -3  0 -1],6458.2,39.8,crit,-0.7
725,North battlefield,725,16,[-1  3  3  3  2  2 -2  3  3  3  3 -3  3  2  2 -3],11820.625,29.5,crit,1.4375
767,North cache,767,4,[-3 -1 -3 -2],8541.5,34.75,crit,-2.25
963,North century,963,11,[-3 -3 -3 -3 -3 -3 -3  0 -3 -3 -3],7034.181818181818,39.36363636363637,crit,-2.727272727272727
7810,North check,7810,9,[-2 -3 -2 -3 -2  1 -1  0 -2],3029.4444444444443,31.333333333333332,crit,-1.5555555555555556
17043,North consolidation,17043,7,[-1 -3  2  1  2 -1  2],4830.857142857143,36.142857142857146,crit,0.2857142857142857
12798,North detention,12798,9,[-3  3 -3 -1 -2 -1  2  2  3],5057.888888888889,46.77777777777778,crit,0.0
11585,North discovery,11585,7,[ 1 -1 -2  0  2 -2  3],7267.142857142857,37.42857142857143,crit,0.14285714285714285
1952,North dispute,1952,11,[-1  3 -2  0 -2 -3  3 -2  2 -2  2],4262.181818181818,27.636363636363637,crit,-0.18181818181818182
5207,North essay,5207,6,[-3 -3 -3 -3 -3 -3],3749.8333333333335,30.166666666666668,crit,-3.0
6925,North expectation,6925,3,[-2 -3 -3],2581.6666666666665,29.0,crit,-2.6666666666666665
3204,North factor,3204,7,[ 1  3 -3 -3 -2 -3 -3],3968.0,36.857142857142854,crit,-1.4285714285714286
6907,North fairy,6907,5,[-3 -2  2 -1 -2],2495.0,28.2,crit,-1.2
16323,North formulation,16323,7,[-3 -3  1 -3 -3 -3 -3],11656.0,42.0,crit,-2.4285714285714284
2397,North gardening,2397,16,[-3 -2 -1  2 -3 -3 -1 -3 -3 -3 -3 -3  1  3  1  0],4258.9375,27.933333333333334,crit,-1.3125
4100,North guitar,4100,6,[-3 -3 -3 -3 -1  0],2739.8333333333335,29.166666666666668,crit,-2.1666666666666665
5003,North high,5003,9,[-3 -3 -1  0 -1  0 -3 -3 -2],3868.6666666666665,29.333333333333332,crit,-1.7777777777777777
3347,North imprisonment,3347,9,[-2  0 -3 -1 -2 -2 -1 -2  1],5072.777777777777,30.666666666666668,crit,-1.3333333333333333
17454,North instinct,17454,8,[ 3  1 -3  1 -3  2 -2 -3],3356.75,30.75,crit,-0.5
18684,North jaw,18684,5,[ 0 -3 -2 -2 -3],3303.2,40.4,crit,-2.0
13690,North licensing,13690,10,[-2  3 -2 -3 -2  0 -1 -3 -3 -3],4971.6,27.9,crit,-1.6
17046,North menu,17046,8,[-1 -2 -2 -3  0 -2 -1 -3],9433.75,31.875,crit,-1.75
10156,North oxygen,10156,4,[-3 -3  1 -3],3473.0,41.5,crit,-2.0
7537,North plastic,7537,9,[-1 -3 -3 -3 -3 -2  0 -2 -3],5516.777777777777,32.22222222222222,crit,-2.2222222222222223
15776,North priority,15776,8,[ 2 -1  0 -1  1 -2 -2  3],4308.625,33.0,crit,0.0
16057,North probability,16057,4,[ 0 -3  3 -3],4827.25,36.75,crit,-0.75
17447,North prohibition,17447,11,[-3 -3 -2 -2  0  3  2 -3 -3  1 -3],3126.909090909091,35.72727272727273,crit,-1.1818181818181819
19829,North recipient,19829,4,[ 2 -3 -1 -3],4929.0,31.5,crit,-1.25
11014,North response,11014,14,[-3 -3 -2 -3 -3 -3  2  1 -1 -3  2 -3 -1 -3],4620.0,31.857142857142858,crit,-1.6428571428571428
17090,North rifle,17090,4,[-2 -1  0  0],4539.5,28.0,crit,-0.75
17306,North rite,17306,8,[ 2 -3  3 -2  0 -3 -2 -3],5862.0,36.75,crit,-1.0
9339,North rugby,9339,7,[-3 -3  0 -3  1  2 -3],4132.714285714285,46.42857142857143,crit,-1.2857142857142858
8671,North sensation,8671,7,[-1 -3  0  0  1 -3 -3],4333.0,46.142857142857146,crit,-1.2857142857142858
9611,North sex,9611,9,[-3 -1  3 -3 -3 -3 -3 -3 -2],3224.777777777778,34.22222222222222,crit,-2.0
6697,North shark,6697,6,[-1  3  3 -3 -3  0],5903.0,34.0,crit,-0.16666666666666666
12558,North short,12558,3,[-1 -3 -3],3084.6666666666665,34.0,crit,-2.3333333333333335
12405,North summary,12405,6,[-1 -3 -3 -3  2  0],2929.5,33.333333333333336,crit,-1.3333333333333333
9146,North tension,9146,5,[-3 -2 -3  2 -3],3529.0,31.6,crit,-1.8
19291,North testimony,19291,5,[ 1 -3 -2 -2 -2],4246.0,30.2,crit,-1.6
16281,North transfer,16281,5,[0 0 2 0 0],6761.6,42.6,crit,0.4
13449,North treaty,13449,6,[ 3  2 -3 -1 -3  2],4225.833333333333,30.0,crit,0.0
11137,North tribunal,11137,5,[ 1  0 -3 -2  3],2857.2,38.0,crit,-0.2
8373,North vocabulary,8373,8,[-1  1 -2 -3 -3 -2 -3 -2],4052.625,28.875,crit,-1.875
4537,North waste,4537,10,[-3 -2 -2 -1  0  2 -1 -3 -2 -1],3646.3,30.1,crit,-1.3
2172,Norwegian abbey,2172,9,[ 3  2  3  0  3  3  3 -2  3],5766.444444444444,36.22222222222222,crit,2.0
4252,Norwegian activation,4252,6,[-1 -3 -1  2 -3 -2],4342.833333333333,24.833333333333332,crit,-1.3333333333333333
2904,Norwegian addiction,2904,8,[-1  1 -3  3  0  3 -2 -1],3428.625,27.0,crit,0.0
9543,Norwegian allegation,9543,9,[-3 -3 -2 -2 -2  2 -1 -1  0],12398.888888888889,33.77777777777778,crit,-1.3333333333333333
8645,Norwegian amenity,8645,11,[ 1 -3  0  2 -3  2  2  0  1  3  0],8417.636363636364,33.54545454545455,crit,0.45454545454545453
797,Norwegian anatomy,797,6,[ 0  1 -2  1  3  3],9080.333333333334,36.833333333333336,crit,1.0
11347,Norwegian ascent,11347,9,[ 1  3  3 -2  1 -2  3 -1  1],6220.222222222223,36.111111111111114,crit,0.7777777777777778
4568,Norwegian boiler,4568,13,[ 0  1  2 -3  0  1  3  0  3  2  2  0  1],3587.5384615384614,37.84615384615385,crit,0.9230769230769231
1771,Norwegian bubble,1771,9,[ 1 -2  1 -2 -1 -2 -1 -3 -2],4372.222222222223,29.444444444444443,crit,-1.2222222222222223
13498,Norwegian bull,13498,7,[ 2  3 -3 -2  3  1 -3],10350.285714285714,26.571428571428573,crit,0.14285714285714285
8663,Norwegian computation,8663,7,[ 1  0  3  3  1 -2  3],3080.4285714285716,23.428571428571427,crit,1.2857142857142858
18947,Norwegian cue,18947,3,[ 1  0 -3],8488.333333333334,33.333333333333336,crit,-0.6666666666666666
7637,Norwegian detail,7637,10,[ 3  3 -3  1  0  3 -3  3  2  3],4163.1,28.0,crit,1.2
7182,Norwegian disorder,7182,12,[ 2 -3 -3  3  0  1 -1 -2  0  2 -1 -1],5371.25,30.833333333333332,crit,-0.25
7116,Norwegian disturbance,7116,5,[ 1 -3  1  3  3],4691.4,40.4,crit,1.0
3358,Norwegian elimination,3358,10,[-3  2 -1 -2  0 -3  1 -2 -1  3],5015.5,31.5,crit,-0.6
9518,Norwegian epilepsy,9518,5,[-3 -3  3 -1 -1],16423.2,26.8,crit,-1.0
6153,Norwegian equality,6153,4,[ 1  3 -1  0],3465.25,25.0,crit,0.75
14786,Norwegian equilibrium,14786,8,[-3 -2  0 -1 -3 -3  1 -2],4990.0,33.5,crit,-1.625
7045,Norwegian fairy,7045,12,[ 3  0  1  2  0  3  3  3  3  0 -3  3],4500.0,34.833333333333336,crit,1.5
11804,Norwegian feedback,11804,7,[-3  1  1 -3  1  3  1],2809.285714285714,32.5,crit,0.14285714285714285
8720,Norwegian garden,8720,6,[2 3 0 2 0 3],4529.833333333333,29.5,crit,1.6666666666666667
2453,Norwegian governance,2453,6,[ 2 -3  3  3  2  3],5668.0,31.666666666666668,crit,1.6666666666666667
14169,Norwegian grip,14169,9,[-3  1  0 -2  0 -2 -2 -3  3],2539.3333333333335,32.666666666666664,crit,-0.8888888888888888
9949,Norwegian habitat,9949,11,[ 3  3  3  1  3  2 -2  3  3  3  3],3621.6363636363635,35.18181818181818,crit,2.272727272727273
12882,Norwegian headline,12882,9,[ 3  3  1  0 -3  3  3  2  1],6582.333333333333,31.88888888888889,crit,1.4444444444444444
15383,Norwegian honey,15383,6,[1 3 3 3 3 3],5080.666666666667,32.0,crit,2.6666666666666665
4987,Norwegian inequality,4987,5,[0 0 3 3 2],4207.0,37.0,crit,1.6
2864,Norwegian leisure,2864,5,[ 1 -3  3  0  2],8159.8,29.4,crit,0.6
12543,Norwegian mall,12543,7,[3 3 3 3 3 3 3],3314.285714285714,37.857142857142854,crit,3.0
5169,Norwegian net,5169,9,[-3  0  0 -3  3  3 -3 -3  2],4151.0,40.44444444444444,crit,-0.4444444444444444
17926,Norwegian nut,17926,3,[ 3  2 -3],3698.0,25.666666666666668,crit,0.6666666666666666
16402,Norwegian pillar,16402,6,[-3  2  1 -3 -3  2],3191.6666666666665,27.0,crit,-0.6666666666666666
13276,Norwegian presentation,13276,8,[-3  3  2  1  2  2  3 -3],3892.375,39.375,crit,0.875
18248,Norwegian radar,18248,8,[-1  2  2  3  2  2  0  2],10516.125,40.875,crit,1.5
3861,Norwegian refund,3861,7,[ 1  1  3  3 -2  2  3],3806.4285714285716,34.42857142857143,crit,1.5714285714285714
15114,Norwegian reign,15114,3,[-2  2  1],5204.333333333333,19.333333333333332,crit,0.3333333333333333
13288,Norwegian rent,13288,8,[ 1 -3  2  0  0  1  3  3],6893.875,28.125,crit,0.875
12484,Norwegian severity,12484,8,[-1 -3 -3 -3 -2 -3 -2 -2],7570.75,26.75,crit,-2.375
7550,Norwegian shield,7550,3,[-1  1  1],2544.6666666666665,23.0,crit,0.3333333333333333
5008,Norwegian shock,5008,5,[-3 -2  1 -3 -2],5069.4,32.0,crit,-1.8
11768,Norwegian standing,11768,9,[-2 -2  2 -3  1  1  3  3  2],4133.333333333333,34.0,crit,0.5555555555555556
5627,Norwegian surfing,5627,9,[ 3 -3  2  3  2  1  3  2 -3],3393.5555555555557,29.666666666666668,crit,1.1111111111111112
7223,Norwegian tank,7223,3,[ 3  3 -1],2442.6666666666665,27.666666666666668,crit,1.6666666666666667
4024,Norwegian vacuum,4024,9,[-2  0  1 -3 -1 -3  3 -2 -2],3371.3333333333335,37.888888888888886,crit,-1.0
17299,Norwegian vinyl,17299,9,[ 3  3  1  3 -1 -1  0  3  3],4061.1111111111113,31.0,crit,1.5555555555555556
18554,Norwegian wake,18554,5,[ 3 -1  1  0  2],4638.8,36.0,crit,1.0
11355,Polish ban,11355,5,[ 2 -3  3 -3  3],3560.0,30.6,crit,0.4
13670,Polish boiler,13670,9,[-3  3  3  3  3  3  0 -3  3],3668.0,39.44444444444444,crit,1.3333333333333333
13954,Polish chip,13954,6,[ 1  3  3  3 -1 -2],4884.833333333333,42.666666666666664,crit,1.1666666666666667
10561,Polish decline,10561,1,[-3],17815.0,22.0,crit,-3.0
19993,Polish discount,19993,4,[-1  1  0  3],3256.25,23.5,crit,0.75
11575,Polish distress,11575,16,[ 3  2  1 -3 -3 -2 -2 -3  1 -3  2 -2  1 -2 -2  0],4115.25,33.125,crit,-0.75
12738,Polish electronics,12738,10,[ 3  2  2  1  2 -3  2  3  2  1],3345.6,35.5,crit,1.5
18685,Polish extent,18685,5,[ 0  1 -3 -3 -2],3044.4,40.2,crit,-1.4
10076,Polish gift,10076,5,[3 2 2 1 2],3539.8,28.0,crit,2.0
8553,Polish innovation,8553,9,[ 3  3  0  3  2 -2 -3  3  3],6271.555555555556,36.666666666666664,crit,1.3333333333333333
18415,Polish inspection,18415,13,[ 1 -1  3 -1 -1  0  0 -3 -1 -2  3  0  2],3995.076923076923,31.76923076923077,crit,0.0
13206,Polish matrix,13206,9,[-3 -1 -1  1  2 -2 -3 -3 -3],3095.777777777778,31.333333333333332,crit,-1.4444444444444444
11141,Polish mechanism,11141,11,[ 0 -2  0  0  2  2  1  0  2  3 -3],11191.90909090909,32.09090909090909,crit,0.45454545454545453
9223,Polish networking,9223,7,[-3  3  3 -3 -2  2  2],3235.8571428571427,34.166666666666664,crit,0.2857142857142857
15998,Polish occurrence,15998,9,[ 1 -2 -2 -3  3  0 -3 -1  3],23960.444444444445,26.666666666666668,crit,-0.4444444444444444
177,Polish pagan,177,762,"[ 0 -2  1 -3 -2 -3  2  3  0 -3  2  3  3  3  3  2  1  3 -2 -3  2 -3 -3  3
  3  3  3  3 -2  3  2  3  1 -3 -1 -1  0  1 -1  3  1  0  1  3  2  3 -3  0
 -2  2 -3  3 -2  3  0 -1  3  1  3  0  1  3 -1  2  3  0  0  0  3  2  3  0
  2  2  3  3 -1  2  3  3  3  3  3  3  3  3  3  3 -3  1  2  3 -3  3 -3  1
  2  3  3  3  3 -3  2  3 -1 -2  3  3  2 -3  2  3  3  1 -3  0 -2 -3  3  2
  1  2  3  1  0  2  3  2  2  3  3 -1  2  3 -3  0 -3  1  3  3  2  3 -3  1
  0  0  1  2  3 -2  3 -3 -1  3  1  3 -1  2  2 -2 -1 -3  1 -1  2 -3  3  1
  1  1  2  3  2 -2 -3  3  3 -1  3 -1  3  2  2  2 -2 -2  1  3  1  1  2  2
 -2  3 -2  1  3 -3  2  3  1  0 -2  3  1  2 -3  0 -2  1  2  3  3  3  3  1
  2  3  2  2  3  0  3  3  3  3 -1 -1  2  2 -2  3  3  0  1  3  3  2  1  3
  2 -3  3  3  1 -3 -2  2  3  3  3  1  0 -3  3 -1 -3  1 -3 -3  1  3  3  1
  0  2 -3 -1 -2 -2  2 -2 -2  3 -3  3 -3  3  0  3  3  0  2  3  3  1  3  3
  2  3  3  2  3  3  1  0  3  3  3  3  2  3  3  3  3 -3  1 -3 -3  2 -1  2
  0 -1 -3  1  3  3 -1  2 -2 -3  3  3 -3 -3  0  3  3  3  3  3  3  3  1 -3
  2 -2  2 -1  3 -3  0  1  3 -3  3  3  3 -2  0  2  0  0 -1  1  0  1  3  0
 -1  2 -2 -2  0  3  3  3 -3  0  0  2  3  3  1 -2 -3 -1  3 -1 -3 -2  1  3
  2  1 -1 -2  3  3  3  2  3  3 -3  2  1  3 -3  1  3  1  3  2  2 -3 -2 -3
  3  0  3 -2  3  1 -2  3  3 -3 -3  3  3  0  2  3  2  0  3 -3  3  3  2 -3
  2  3  3  1  2  1 -3  1 -2 -2  3  3  1  3  1  2  3 -3  2  3  0  3 -1  3
  3  1  2  2 -3  3  2  2  1 -1  3  1 -3  0  3  3  1 -3  3  1  3  3  1 -1
  1  2  3  3  0 -3  3  3  3  3  3  3  2 -2 -1 -2  3 -2 -2  3  0  3 -2  2
  2 -3  1  3  3  2 -2  1  3  2 -1 -3  1  2 -3 -3  2  0  1  3  3 -2  3 -3
  3  3  0  1  1  3 -3  0 -2  3  2  0  3  0  3  1  3  0  3  3 -3 -2  3  1
  1  3  3  1  3 -2  2  3  1  3  2  3  0  1 -3 -3 -1  1  3 -1  3  3  2 -3
  2  2 -3 -3  3 -3  3 -1 -2  1  1  3 -1 -3  3 -1  1  1 -2 -3  1 -3  3  3
  3 -2  3  3  3 -1  2  3  3  3  2  3  2  3 -3  3  2  3  1  2 -3  3  1  2
  3 -3 -3  3 -3  2 -1  0 -1  3  3  3  1  1  2 -3  1  2  2  1  0 -3  3  2
  3  3  2  1  1  2  3  1  3  3  3  1  1  3  2 -3 -1  3  3  3  0  2  3  2
  3  3 -3  2  3  2  0  3  2  2 -3 -3  3  1  2  2  3  1  1  1  3  0 -2  0
  1  3  0  3  1  2  3  2  3  0 -3  2  3 -1 -3  1  2 -3 -1  1  0  2  1  3
  3 -3 -3  0 -3  1 -3 -3  3 -3 -1  0  1  2  1  1  2  3  3  3 -3  2  3  0
  2  3  2 -1  3  3  2  3  0  3  2  0 -1  2  2  3  2  2]",4948.416010498688,32.337713534822605,anti,0.963254593175853
5844,Polish parameter,5844,4,[ 3  2 -2 -3],3242.75,37.75,crit,0.0
12731,Polish permit,12731,12,[ 2  2 -3  1  3 -2  3  3  1  3  1  3],3285.25,35.083333333333336,crit,1.4166666666666667
3954,Polish protagonist,3954,9,[ 3  3  3  3  2  3  3  3 -2],3310.6666666666665,25.11111111111111,crit,2.3333333333333335
15870,Polish retention,15870,6,[-2 -2 -3  0  1 -2],7739.333333333333,34.5,crit,-1.3333333333333333
8942,Polish routine,8942,9,[ 2  3  3  2  3 -3  3  1  3],4165.555555555556,25.88888888888889,crit,1.8888888888888888
9780,Polish salmon,9780,8,[-2 -3  1  2 -3  3 -3  3],4011.625,35.625,crit,-0.25
2213,Polish sample,2213,7,[-1  1  3  2  1 -3  3],8062.142857142857,35.142857142857146,crit,0.8571428571428571
13841,Polish sense,13841,7,[ 0  2 -1  0  2  2 -1],3449.1428571428573,29.428571428571427,crit,0.5714285714285714
14328,Polish slope,14328,6,[ 1  3  1  3  3 -3],4147.666666666667,30.333333333333332,crit,1.3333333333333333
18816,Polish slot,18816,4,[ 0 -3  0 -1],7116.5,30.25,crit,-1.0
18152,Polish strain,18152,8,[ 1  0  2 -2  3  3  2  0],10710.25,32.625,crit,1.125
1222,Polish stretch,1222,6,[-3 -3  2  1 -2  1],4706.333333333333,30.666666666666668,crit,-0.6666666666666666
10056,Polish terrace,10056,10,[ 3  3  3  3  2  1  1  3 -2 -2],9481.3,29.2,crit,1.5
4546,Polish tissue,4546,7,[-2  1  0 -2 -1  2 -3],4524.0,25.428571428571427,crit,-0.7142857142857143
19666,Russian admission,19666,1,[3],1955.0,31.0,crit,3.0
12626,Russian alteration,12626,7,[-1 -3 -1  3  0  0  3],4302.857142857143,40.714285714285715,crit,0.14285714285714285
14870,Russian bankruptcy,14870,7,[ 2  3  2  3  3 -2  3],4124.285714285715,29.142857142857142,crit,2.0
13330,Russian bonus,13330,3,[ 2  3 -1],4637.666666666667,34.666666666666664,crit,1.3333333333333333
12115,Russian clarification,12115,7,[ 2 -3  0  3  0 -2 -1],6727.285714285715,37.142857142857146,crit,-0.14285714285714285
15037,Russian cover,15037,10,[ 3  2  0 -1  3  1  3 -2  1  1],3937.3,28.8,crit,1.1
7965,Russian denomination,7965,9,[-3  3 -1  2  1  1  2 -2  2],4938.333333333333,24.666666666666668,crit,0.5555555555555556
17965,Russian depth,17965,7,[-2 -2 -3  3  3 -2 -2],3308.4285714285716,33.57142857142857,crit,-0.7142857142857143
479,Russian euro,479,7,[-3 -3  0  3  2 -1 -3],8883.142857142857,28.0,crit,-0.7142857142857143
13636,Russian joint,13636,6,[-1  2 -3  3 -3 -3],6409.5,37.666666666666664,crit,-0.8333333333333334
735,Russian membrane,735,8,[-2 -2  3 -1 -3  1 -3 -3],8388.375,36.75,crit,-1.25
6686,Russian modem,6686,6,[-2  2 -3 -1  1  3],3207.5,32.5,crit,0.0
4356,Russian onion,4356,8,[ 3  3  1 -3 -1  3  1  3],7698.5,32.125,crit,1.25
10012,Russian pad,10012,5,[ 3  2 -3 -1 -2],6303.0,31.4,crit,-0.2
18840,Russian possibility,18840,4,[ 1 -3  2  0],5363.25,38.75,crit,0.0
2747,Russian shift,2747,4,[-3  1 -3 -3],1980.5,32.5,crit,-2.0
11158,Russian socket,11158,6,[-3  1  0 -3  3  1],5651.333333333333,44.5,crit,-0.16666666666666666
2849,Russian tension,2849,8,[ 3  3  3 -2  2  2  1  0],3508.25,33.375,crit,1.5
11082,Russian warrant,11082,7,[ 0  2  3  1  1  3 -2],7985.714285714285,51.714285714285715,crit,1.1428571428571428
6638,Scottish cavity,6638,7,[-3 -1 -3  0  3  1  0],4331.857142857143,33.285714285714285,crit,-0.42857142857142855
1848,Scottish concrete,1848,5,[-2  3 -1 -2  0],4304.8,29.8,crit,-0.4
2466,Scottish connector,2466,8,[ 0 -2  3  1 -3  3  1  1],5711.875,27.875,crit,0.5
595,Scottish consolidation,595,4,[ 3 -1  3  1],3862.25,41.0,crit,1.5
14036,Scottish disc,14036,11,[-3  0  3  0  1  3  1  3 -1 -3 -3],3230.181818181818,35.72727272727273,crit,0.09090909090909091
15170,Scottish membrane,15170,10,[ 1 -3  2 -3 -2 -2  0 -3 -2 -3],3919.4,32.8,crit,-1.5
6999,Scottish occupant,6999,4,[-3  3  3  0],2636.5,29.25,crit,0.75
3521,Scottish pastor,3521,9,[ 3  3  3 -3  3  3  2  3  3],3111.1111111111113,30.88888888888889,crit,2.2222222222222223
2173,Scottish pdf,2173,4,[-3  3 -3  0],3579.0,33.25,crit,-0.75
4927,Scottish prosperity,4927,10,[ 3  2  3  2  1 -3  3  2  1  0],3608.6,34.2,crit,1.4
10068,Scottish proximity,10068,12,[ 2  3  0  3 -1  1  3 -3 -3 -1 -2  0],3011.0,37.583333333333336,crit,0.16666666666666666
7792,Scottish ribbon,7792,8,[ 3  3  3  2  2 -1  0  1],4862.125,31.875,crit,1.625
11119,Scottish salad,11119,10,[ 2  1  3  3  3  3  3  3 -2  1],3656.5,29.2,crit,2.0
14425,Scottish solidarity,14425,6,[ 3  3  3  1  3 -1],4007.6666666666665,33.166666666666664,crit,2.0
8066,Scottish stance,8066,8,[ 1 -2  2  3  3 -1  1  0],3676.25,31.125,crit,0.875
803,Scottish treaty,803,7,[-2  3  3  3  2  2  3],3584.8571428571427,36.42857142857143,crit,2.0
8136,Scottish warning,8136,11,[ 0  0 -1 -1  3  1 -3  0 -3  1 -3],2662.0,30.09090909090909,crit,-0.5454545454545454
938,South abbreviation,938,9,[-2 -2 -2  1 -2  0  2  0 -1],4856.444444444444,33.333333333333336,crit,-0.6666666666666666
8162,South attendance,8162,11,[-1 -3  2 -2  1  0 -2 -2 -2  2 -3],4716.727272727273,26.272727272727273,crit,-0.9090909090909091
6569,South axe,6569,12,[-3 -2 -3 -1 -3 -3 -2 -2 -1  0  2 -3],3467.9166666666665,39.333333333333336,crit,-1.75
17278,South ban,17278,5,[-1 -3 -2 -1  1],7762.6,31.8,crit,-1.2
12650,South banker,12650,6,[ 3  1  3  2 -2  3],5188.666666666667,31.5,crit,1.6666666666666667
9847,South bell,9847,3,[-3 -2  3],3315.0,33.0,crit,-0.6666666666666666
10981,South comic,10981,5,[ 1  3 -3  1  1],6985.0,27.2,crit,0.6
8815,South congratulation,8815,6,[-3 -3 -3 -3 -3  1],7736.0,31.666666666666668,crit,-2.3333333333333335
7490,South consultant,7490,4,[ 0  0  1 -3],5180.25,30.25,crit,-0.5
8264,South destruction,8264,11,[ 0 -2 -3  1 -3 -3 -3  3 -2 -3 -3],4312.454545454545,29.90909090909091,crit,-1.6363636363636365
18911,South dinner,18911,5,[-2 -3  1  1 -3],4133.8,36.4,crit,-1.2
5139,South examiner,5139,8,[-3  0  1  3 -1 -2  2 -3],4143.0,34.875,crit,-0.375
10468,South hop,10468,11,[-3 -1 -2  2 -1 -2 -2  0 -3 -3  3],4277.363636363636,34.27272727272727,crit,-1.0909090909090908
1503,South infringement,1503,7,[-3 -2 -2 -3  1 -2  1],6098.714285714285,29.857142857142858,crit,-1.4285714285714286
10044,South ink,10044,10,[-3  3 -3 -3 -1 -3 -2 -1  0 -3],4600.9,34.9,crit,-1.6
15299,South instance,15299,6,[-2 -1 -1 -2 -3 -3],6342.833333333333,30.0,crit,-2.0
10265,South mail,10265,12,[ 3 -3  3  1 -2 -2  2  2  0 -2 -2  1],6649.916666666667,34.083333333333336,crit,0.08333333333333333
6549,South management,6549,8,[ 1 -3 -3 -3  0  3  0  2],3556.25,34.375,crit,-0.375
3915,South mapping,3915,10,[ 3 -3 -2 -3 -2 -3 -1  1  1  2],3924.1,31.9,crit,-0.7
4484,South memorial,4484,7,[-2 -3 -3 -2  2 -1  2],4843.0,29.571428571428573,crit,-1.0
12475,South metadata,12475,9,[-3 -3 -2 -2 -2 -3  2  0  1],5884.444444444444,31.77777777777778,crit,-1.3333333333333333
1857,South monkey,1857,9,[-1 -2  3  1 -3  2 -3 -3  0],5327.888888888889,31.77777777777778,crit,-0.6666666666666666
9864,South move,9864,10,[-3  0 -3  3 -2  3 -1 -1 -2  3],20863.7,27.4,crit,-0.3
4488,South pesticide,4488,8,[-3 -3 -2 -3  3 -3 -1 -3],4250.125,37.25,crit,-1.875
6772,South pie,6772,11,[ 1 -2 -2  1 -2 -1 -3 -3 -3  2 -1],3239.909090909091,27.90909090909091,crit,-1.1818181818181819
13469,South proliferation,13469,12,[ 0  1 -3 -1 -1 -3  1 -3 -2 -1  2 -2],4790.833333333333,28.416666666666668,crit,-1.0
5591,South quality,5591,10,[ 3 -2 -3 -2 -2 -3 -3  3 -3 -3],2909.8,28.7,crit,-1.5
10602,South quote,10602,7,[ 0  1 -2 -3 -3 -1  2],4783.571428571428,35.42857142857143,crit,-0.8571428571428571
7576,South salvation,7576,9,[-3  0 -3 -3 -3 -3  0  3  0],2948.0,28.22222222222222,crit,-1.3333333333333333
14028,South sandwich,14028,8,[-2 -2 -3 -3 -3  1 -3 -3],4035.125,36.125,crit,-2.25
6276,South seed,6276,11,[ 1 -1  1 -2 -2 -2  1 -2  1  3 -3],5362.454545454545,31.818181818181817,crit,-0.45454545454545453
17021,South sensor,17021,1,[-3],3686.0,32.0,crit,-3.0
17781,South short,17781,4,[-3 -1 -2 -1],4388.75,35.75,crit,-1.75
8011,South soul,8011,9,[ 0 -2 -3 -3 -3 -3  0 -2 -3],7159.777777777777,27.11111111111111,crit,-2.111111111111111
15312,South supervision,15312,8,[-3 -1  0  0 -3 -3 -2 -1],3151.75,36.75,crit,-1.625
18369,South surf,18369,8,[ 3  2 -2  2 -1 -1 -3 -3],2888.25,29.875,crit,-0.375
664,South surroundings,664,7,[ 1 -3  2  2  1 -3 -1],3880.5714285714284,29.0,crit,-0.14285714285714285
2685,South tin,2685,6,[-2 -2 -3 -3 -2  3],5940.666666666667,25.333333333333332,crit,-1.5
19518,South tolerance,19518,6,[-2 -3  2 -2 -3  1],6673.333333333333,28.833333333333332,crit,-1.1666666666666667
17451,South turbine,17451,5,[ 3 -2  2 -1 -2],3722.6,36.8,crit,0.0
5167,South vector,5167,4,[-3  1  3  2],3300.0,39.5,crit,0.75
11096,South villager,11096,10,[ 3  3  3  1  1  3  1  1 -2  3],4899.7,36.5,crit,1.7
3040,South wartime,3040,7,[ 1 -3 -3 -3 -1 -3  2],7446.428571428572,35.0,crit,-1.4285714285714286
15391,South witness,15391,5,[ 0  3 -3 -3 -3],3110.4,29.2,crit,-1.2
5290,Soviet addiction,5290,3,[ 0 -3  1],4866.333333333333,24.666666666666668,crit,-0.6666666666666666
4868,Soviet alignment,4868,11,[ 2 -3  1  1  3  2 -3 -2 -3  3 -2],4737.545454545455,38.45454545454545,crit,-0.09090909090909091
8797,Soviet basket,8797,9,[ 3 -3 -2  2  3  0  3 -3  1],3256.6666666666665,33.55555555555556,crit,0.4444444444444444
4187,Soviet beat,4187,7,[-1 -3 -3 -2 -3 -3  3],5286.285714285715,27.571428571428573,crit,-1.7142857142857142
11553,Soviet beef,11553,11,[ 3 -2 -2 -3  1 -3 -1  3  3  2  3],3743.090909090909,31.636363636363637,crit,0.36363636363636365
14336,Soviet behalf,14336,5,[ 0  2 -3 -3 -3],5110.2,38.4,crit,-1.4
5406,Soviet bid,5406,4,[-3  1  1  2],3259.75,25.75,crit,0.25
9349,Soviet blanket,9349,8,[ 3 -2  3 -3 -3  3 -3  3],3864.875,36.875,crit,0.125
13937,Soviet cage,13937,4,[-1 -3  2  0],4460.25,36.0,crit,-0.5
2488,Soviet cat,2488,12,[ 0  3  0 -3 -3  1  3  0  3  0  3 -3],5607.25,35.166666666666664,crit,0.3333333333333333
1778,Soviet covenant,1778,19,[ 2  3 -2 -1 -3  1  2  2  2 -3 -3  0  2  2  1  0  3 -3  1],5887.368421052632,34.8421052631579,crit,0.3157894736842105
1724,Soviet curiosity,1724,12,[ 2  1  3  1  2  3  2 -2  0 -2  3  2],4766.0,31.75,crit,1.25
